t_us,frame_id,sensor_id,accX,accY,accZ,acc_sum_YZ,magX,magY,magZ
663484773,530244,0,1.0,-0.037109375,0.021484375,-0.015625,0.0,0.0,0.0
663486025,530245,0,1.001953125,-0.037109375,0.017578125,-0.01953125,0.0,0.0,0.0
663487277,530246,0,1.005859375,-0.033203125,0.013671875,-0.01953125,0.0,0.0,0.0
663488528,530247,0,1.005859375,-0.037109375,0.015625,-0.021484375,0.0,0.0,0.0
663489779,530248,0,1.001953125,-0.033203125,0.009765625,-0.0234375,0.0,0.0,0.0
663491031,530249,0,1.0,-0.03515625,0.015625,-0.01953125,0.0,0.0,0.0
663492283,530250,0,1.001953125,-0.03515625,0.01171875,-0.0234375,0.0,0.0,0.0
663493535,530251,0,1.00390625,-0.037109375,0.013671875,-0.0234375,0.0,0.0,0.0
663494786,530252,0,1.00390625,-0.0390625,0.01953125,-0.01953125,0.0,0.0,0.0
663496036,530253,0,1.0,-0.0390625,0.013671875,-0.025390625,0.0,0.0,0.0
663497287,530254,0,1.001953125,-0.03515625,0.015625,-0.01953125,0.0,0.0,0.0
663498537,530255,0,0.99609375,-0.037109375,0.017578125,-0.01953125,0.0,0.0,0.0
663499787,530256,0,1.0,-0.037109375,0.017578125,-0.01953125,0.0,0.0,0.0
663501038,530257,0,1.01171875,-0.03515625,0.013671875,-0.021484375,0.0,0.0,0.0
663502289,530258,0,0.99609375,-0.037109375,0.01953125,-0.017578125,0.0,0.0,0.0
663503539,530259,0,1.0078125,-0.037109375,0.015625,-0.021484375,0.0,0.0,0.0
663504790,530260,0,1.0078125,-0.037109375,0.017578125,-0.01953125,0.0,0.0,0.0
663506042,530261,0,1.0078125,-0.037109375,0.01953125,-0.017578125,0.0,0.0,0.0
663507292,530262,0,1.001953125,-0.0390625,0.015625,-0.0234375,0.0,0.0,0.0
663508543,530263,0,1.001953125,-0.037109375,0.017578125,-0.01953125,0.0,0.0,0.0
663509794,530264,0,1.0078125,-0.033203125,0.013671875,-0.01953125,0.0,0.0,0.0
663511044,530265,0,1.005859375,-0.033203125,0.01171875,-0.021484375,0.0,0.0,0.0
663512294,530266,0,1.00390625,-0.033203125,0.013671875,-0.01953125,0.0,0.0,0.0
663513544,530267,0,1.005859375,-0.03515625,0.01953125,-0.015625,0.0,0.0,0.0
663514796,530268,0,1.0,-0.033203125,0.01171875,-0.021484375,0.0,0.0,0.0
663516047,530269,0,1.005859375,-0.037109375,0.0234375,-0.013671875,0.0,0.0,0.0
663517297,530270,0,1.0,-0.03515625,0.013671875,-0.021484375,0.0,0.0,0.0
663518548,530271,0,1.005859375,-0.0390625,0.017578125,-0.021484375,0.0,0.0,0.0
663519800,530272,0,1.0,-0.03515625,0.01953125,-0.015625,0.0,0.0,0.0
663521050,530273,0,1.005859375,-0.037109375,0.013671875,-0.0234375,0.0,0.0,0.0
663522300,530274,0,1.001953125,-0.03515625,0.01953125,-0.015625,0.0,0.0,0.0
663523550,530275,0,1.005859375,-0.03515625,0.015625,-0.01953125,0.0,0.0,0.0
663524801,530276,0,1.0,-0.03515625,0.013671875,-0.021484375,0.0,0.0,0.0
663526052,530277,0,0.99609375,-0.03515625,0.0234375,-0.01171875,0.0,0.0,0.0
663527302,530278,0,1.005859375,-0.03125,0.015625,-0.015625,0.0,0.0,0.0
663528553,530279,0,0.998046875,-0.033203125,0.025390625,-0.0078125,0.0,0.0,0.0
663529804,530280,0,1.0,-0.03515625,0.021484375,-0.013671875,0.0,0.0,0.0
663531054,530281,0,1.001953125,-0.03515625,0.025390625,-0.009765625,0.0,0.0,0.0
663532305,530282,0,1.005859375,-0.037109375,0.017578125,-0.01953125,0.0,0.0,0.0
663533556,530283,0,1.001953125,-0.03515625,0.015625,-0.01953125,0.0,0.0,0.0
663534807,530284,0,1.0,-0.037109375,0.015625,-0.021484375,0.0,0.0,0.0
663536058,530285,0,1.001953125,-0.037109375,0.01171875,-0.025390625,0.0,0.0,0.0
663537310,530286,0,1.005859375,-0.037109375,0.017578125,-0.01953125,0.0,0.0,0.0
663538560,530287,0,1.005859375,-0.03515625,0.017578125,-0.017578125,0.0,0.0,0.0
663539810,530288,0,1.005859375,-0.037109375,0.01953125,-0.017578125,0.0,0.0,0.0
663541060,530289,0,1.005859375,-0.037109375,0.017578125,-0.01953125,0.0,0.0,0.0
663542311,530290,0,1.00390625,-0.037109375,0.01953125,-0.017578125,0.0,0.0,0.0
663543561,530291,0,1.00390625,-0.037109375,0.015625,-0.021484375,0.0,0.0,0.0
663544813,530292,0,1.00390625,-0.03515625,0.017578125,-0.017578125,0.0,0.0,0.0
663546063,530293,0,1.0078125,-0.033203125,0.013671875,-0.01953125,0.0,0.0,0.0
663547313,530294,0,1.009765625,-0.033203125,0.01171875,-0.021484375,0.0,0.0,0.0
663548565,530295,0,1.009765625,-0.03515625,0.01171875,-0.0234375,0.0,0.0,0.0
663549816,530296,0,1.0078125,-0.037109375,0.021484375,-0.015625,0.0,0.0,0.0
663551066,530297,0,1.005859375,-0.03515625,0.013671875,-0.021484375,0.0,0.0,0.0
663552316,530298,0,1.0078125,-0.033203125,0.015625,-0.017578125,0.0,0.0,0.0
663553567,530299,0,1.013671875,-0.041015625,0.015625,-0.025390625,0.0,0.0,0.0
663554817,530300,0,1.013671875,-0.03515625,0.01953125,-0.015625,0.0,0.0,0.0
663556069,530301,0,0.99609375,-0.033203125,0.0078125,-0.025390625,0.0,0.0,0.0
663557319,530302,0,1.00390625,-0.037109375,0.015625,-0.021484375,0.0,0.0,0.0
663558570,530303,0,1.005859375,-0.03515625,0.015625,-0.01953125,0.0,0.0,0.0
663559822,530304,0,0.990234375,-0.037109375,0.013671875,-0.0234375,0.0,0.0,0.0
663561072,530305,0,0.994140625,-0.037109375,0.01953125,-0.017578125,0.0,0.0,0.0
663562322,530306,0,1.00390625,-0.03515625,0.017578125,-0.017578125,0.0,0.0,0.0
663563572,530307,0,1.0,-0.03515625,0.0078125,-0.02734375,0.0,0.0,0.0
663564823,530308,0,1.005859375,-0.03515625,0.013671875,-0.021484375,0.0,0.0,0.0
663566075,530309,0,1.005859375,-0.037109375,0.013671875,-0.0234375,0.0,0.0,0.0
663567326,530310,0,1.001953125,-0.03515625,0.013671875,-0.021484375,0.0,0.0,0.0
663568576,530311,0,1.005859375,-0.03515625,0.01953125,-0.015625,0.0,0.0,0.0
663569827,530312,0,1.0078125,-0.03515625,0.013671875,-0.021484375,0.0,0.0,0.0
663571077,530313,0,1.0,-0.03515625,0.015625,-0.01953125,0.0,0.0,0.0
663572327,530314,0,1.00390625,-0.037109375,0.01953125,-0.017578125,0.0,0.0,0.0
663573578,530315,0,0.998046875,-0.037109375,0.013671875,-0.0234375,0.0,0.0,0.0
663574829,530316,0,1.005859375,-0.03515625,0.015625,-0.01953125,0.0,0.0,0.0
663576080,530317,0,1.001953125,-0.037109375,0.01953125,-0.017578125,0.0,0.0,0.0
663577332,530318,0,1.005859375,-0.03515625,0.015625,-0.01953125,0.0,0.0,0.0
663578582,530319,0,1.0,-0.041015625,0.01171875,-0.029296875,0.0,0.0,0.0
663579834,530320,0,0.99609375,-0.03515625,0.009765625,-0.025390625,0.0,0.0,0.0
663581085,530321,0,0.99609375,-0.0390625,0.015625,-0.0234375,0.0,0.0,0.0
663582335,530322,0,1.0,-0.03515625,0.013671875,-0.021484375,0.0,0.0,0.0
663583586,530323,0,1.013671875,-0.0390625,0.015625,-0.0234375,0.0,0.0,0.0
663584838,530324,0,1.0078125,-0.029296875,0.0234375,-0.005859375,0.0,0.0,0.0
663586088,530325,0,1.0,-0.037109375,0.017578125,-0.01953125,0.0,0.0,0.0
663587338,530326,0,0.998046875,-0.033203125,0.017578125,-0.015625,0.0,0.0,0.0
663588589,530327,0,1.00390625,-0.03515625,0.017578125,-0.017578125,0.0,0.0,0.0
663589839,530328,0,1.0,-0.037109375,0.015625,-0.021484375,0.0,0.0,0.0
663591091,530329,0,1.0,-0.037109375,0.015625,-0.021484375,0.0,0.0,0.0
663592341,530330,0,1.00390625,-0.037109375,0.009765625,-0.02734375,0.0,0.0,0.0
663593592,530331,0,1.00390625,-0.0390625,0.013671875,-0.025390625,0.0,0.0,0.0
663594844,530332,0,1.00390625,-0.037109375,0.015625,-0.021484375,0.0,0.0,0.0
663596094,530333,0,1.001953125,-0.03515625,0.00390625,-0.03125,0.0,0.0,0.0
663597344,530334,0,1.00390625,-0.03515625,0.021484375,-0.013671875,0.0,0.0,0.0
663598595,530335,0,1.0078125,-0.037109375,0.017578125,-0.01953125,0.0,0.0,0.0
663599846,530336,0,1.005859375,-0.03515625,0.015625,-0.01953125,0.0,0.0,0.0
663601096,530337,0,1.001953125,-0.037109375,0.015625,-0.021484375,0.0,0.0,0.0
663602346,530338,0,1.0078125,-0.04296875,0.017578125,-0.025390625,0.0,0.0,0.0
663603597,530339,0,1.005859375,-0.0390625,0.017578125,-0.021484375,0.0,0.0,0.0
663604847,530340,0,1.00390625,-0.044921875,0.001953125,-0.04296875,0.0,0.0,0.0
663606097,530341,0,1.005859375,-0.037109375,0.01953125,-0.017578125,0.0,0.0,0.0
663607349,530342,0,1.0078125,-0.033203125,0.009765625,-0.0234375,0.0,0.0,0.0
663608599,530343,0,0.998046875,-0.03515625,0.021484375,-0.013671875,0.0,0.0,0.0
663609850,530344,0,1.005859375,-0.033203125,0.013671875,-0.01953125,0.0,0.0,0.0
663611101,530345,0,1.0078125,-0.037109375,0.01953125,-0.017578125,0.0,0.0,0.0
663612351,530346,0,0.998046875,-0.037109375,0.021484375,-0.015625,0.0,0.0,0.0
663613602,530347,0,1.00390625,-0.041015625,0.017578125,-0.0234375,0.0,0.0,0.0
663614853,530348,0,1.005859375,-0.03515625,0.01171875,-0.0234375,0.0,0.0,0.0
663616103,530349,0,1.0078125,-0.03125,0.017578125,-0.013671875,0.0,0.0,0.0
663617355,530350,0,1.00390625,-0.03515625,0.01171875,-0.0234375,0.0,0.0,0.0
663618606,530351,0,1.00390625,-0.03125,0.015625,-0.015625,0.0,0.0,0.0
663619856,530352,0,1.0078125,-0.03515625,0.01953125,-0.015625,0.0,0.0,0.0
663621108,530353,0,0.998046875,-0.033203125,0.017578125,-0.015625,0.0,0.0,0.0
663622359,530354,0,1.001953125,-0.033203125,0.01171875,-0.021484375,0.0,0.0,0.0
663623610,530355,0,1.001953125,-0.037109375,0.015625,-0.021484375,0.0,0.0,0.0
663624860,530356,0,1.00390625,-0.037109375,0.01171875,-0.025390625,0.0,0.0,0.0
663626110,530357,0,1.001953125,-0.037109375,0.013671875,-0.0234375,0.0,0.0,0.0
663627362,530358,0,1.001953125,-0.03515625,0.021484375,-0.013671875,0.0,0.0,0.0
663628614,530359,0,1.009765625,-0.037109375,0.01171875,-0.025390625,0.0,0.0,0.0
663629865,530360,0,1.005859375,-0.04296875,0.015625,-0.02734375,0.0,0.0,0.0
663631115,530361,0,1.005859375,-0.029296875,0.013671875,-0.015625,0.0,0.0,0.0
663632366,530362,0,1.009765625,-0.03125,0.01953125,-0.01171875,0.0,0.0,0.0
663633616,530363,0,1.009765625,-0.033203125,0.017578125,-0.015625,0.0,0.0,0.0
663634867,530364,0,1.001953125,-0.03125,0.017578125,-0.013671875,0.0,0.0,0.0
663636118,530365,0,1.00390625,-0.033203125,0.009765625,-0.0234375,0.0,0.0,0.0
663637368,530366,0,1.015625,-0.037109375,0.0234375,-0.013671875,0.0,0.0,0.0
663638619,530367,0,0.998046875,-0.037109375,0.017578125,-0.01953125,0.0,0.0,0.0
663639871,530368,0,1.001953125,-0.041015625,0.013671875,-0.02734375,0.0,0.0,0.0
663641121,530369,0,1.005859375,-0.0390625,0.017578125,-0.021484375,0.0,0.0,0.0
663642371,530370,0,1.0078125,-0.03515625,0.015625,-0.01953125,0.0,0.0,0.0
663643623,530371,0,1.005859375,-0.044921875,0.01171875,-0.033203125,0.0,0.0,0.0
663644873,530372,0,1.001953125,-0.041015625,0.015625,-0.025390625,0.0,0.0,0.0
663646124,530373,0,1.001953125,-0.037109375,0.015625,-0.021484375,0.0,0.0,0.0
663647376,530374,0,1.00390625,-0.041015625,0.013671875,-0.02734375,0.0,0.0,0.0
663648626,530375,0,1.0,-0.041015625,0.01171875,-0.029296875,0.0,0.0,0.0
663649877,530376,0,1.001953125,-0.03515625,0.00390625,-0.03125,0.0,0.0,0.0
663651127,530377,0,1.0078125,-0.037109375,0.013671875,-0.0234375,0.0,0.0,0.0
663652377,530378,0,1.005859375,-0.03515625,0.013671875,-0.021484375,0.0,0.0,0.0
663653629,530379,0,1.005859375,-0.037109375,0.013671875,-0.0234375,0.0,0.0,0.0
663654879,530380,0,1.005859375,-0.037109375,0.015625,-0.021484375,0.0,0.0,0.0
663656130,530381,0,1.00390625,-0.041015625,0.021484375,-0.01953125,0.0,0.0,0.0
663657381,530382,0,1.005859375,-0.03125,0.01171875,-0.01953125,0.0,0.0,0.0
663658631,530383,0,0.998046875,-0.037109375,0.015625,-0.021484375,0.0,0.0,0.0
663659883,530384,0,1.009765625,-0.033203125,0.021484375,-0.01171875,0.0,0.0,0.0
663661134,530385,0,1.001953125,-0.03125,0.015625,-0.015625,0.0,0.0,0.0
663662384,530386,0,1.0,-0.03515625,0.01953125,-0.015625,0.0,0.0,0.0
663663635,530387,0,1.0078125,-0.037109375,0.013671875,-0.0234375,0.0,0.0,0.0
663664887,530388,0,0.9921875,-0.033203125,0.015625,-0.017578125,0.0,0.0,0.0
663666137,530389,0,1.00390625,-0.03515625,0.0078125,-0.02734375,0.0,0.0,0.0
663667388,530390,0,1.0,-0.037109375,0.017578125,-0.01953125,0.0,0.0,0.0
663668639,530391,0,1.001953125,-0.041015625,0.015625,-0.025390625,0.0,0.0,0.0
663669889,530392,0,1.0,-0.041015625,0.021484375,-0.01953125,0.0,0.0,0.0
663671140,530393,0,1.005859375,-0.03515625,0.009765625,-0.025390625,0.0,0.0,0.0
663672392,530394,0,1.00390625,-0.037109375,0.01171875,-0.025390625,0.0,0.0,0.0
663673642,530395,0,1.0078125,-0.03515625,0.01171875,-0.0234375,0.0,0.0,0.0
663674894,530396,0,1.00390625,-0.037109375,0.01171875,-0.025390625,0.0,0.0,0.0
663676145,530397,0,1.0078125,-0.03515625,0.01953125,-0.015625,0.0,0.0,0.0
663677396,530398,0,1.00390625,-0.03125,0.017578125,-0.013671875,0.0,0.0,0.0
663678647,530399,0,1.00390625,-0.03515625,0.017578125,-0.017578125,0.0,0.0,0.0
663679899,530400,0,1.0078125,-0.037109375,0.01953125,-0.017578125,0.0,0.0,0.0
663681150,530401,0,1.005859375,-0.037109375,0.015625,-0.021484375,0.0,0.0,0.0
663682400,530402,0,1.00390625,-0.03515625,0.009765625,-0.025390625,0.0,0.0,0.0
663683652,530403,0,1.00390625,-0.0390625,0.017578125,-0.021484375,0.0,0.0,0.0
663684902,530404,0,1.0078125,-0.041015625,0.015625,-0.025390625,0.0,0.0,0.0
663686152,530405,0,1.005859375,-0.03515625,0.021484375,-0.013671875,0.0,0.0,0.0
663687402,530406,0,1.013671875,-0.03515625,0.009765625,-0.025390625,0.0,0.0,0.0
663688653,530407,0,1.005859375,-0.041015625,0.013671875,-0.02734375,0.0,0.0,0.0
663689904,530408,0,1.013671875,-0.037109375,0.013671875,-0.0234375,0.0,0.0,0.0
663691154,530409,0,1.0078125,-0.033203125,0.009765625,-0.0234375,0.0,0.0,0.0
663692406,530410,0,1.00390625,-0.03515625,0.01953125,-0.015625,0.0,0.0,0.0
663693657,530411,0,1.001953125,-0.0390625,0.01171875,-0.02734375,0.0,0.0,0.0
663694907,530412,0,1.005859375,-0.037109375,0.01953125,-0.017578125,0.0,0.0,0.0
663696158,530413,0,1.00390625,-0.037109375,0.015625,-0.021484375,0.0,0.0,0.0
663697408,530414,0,1.0078125,-0.03515625,0.01171875,-0.0234375,0.0,0.0,0.0
663698659,530415,0,1.001953125,-0.037109375,0.01953125,-0.017578125,0.0,0.0,0.0
663699910,530416,0,1.001953125,-0.03515625,0.017578125,-0.017578125,0.0,0.0,0.0
663701160,530417,0,1.005859375,-0.037109375,0.015625,-0.021484375,0.0,0.0,0.0
663702410,530418,0,1.0,-0.037109375,0.015625,-0.021484375,0.0,0.0,0.0
663703662,530419,0,1.0,-0.037109375,0.013671875,-0.0234375,0.0,0.0,0.0
663704912,530420,0,1.001953125,-0.03515625,0.013671875,-0.021484375,0.0,0.0,0.0
663706163,530421,0,1.00390625,-0.037109375,0.009765625,-0.02734375,0.0,0.0,0.0
663707413,530422,0,0.99609375,-0.03515625,0.021484375,-0.013671875,0.0,0.0,0.0
663708664,530423,0,1.00390625,-0.03515625,0.017578125,-0.017578125,0.0,0.0,0.0
663709915,530424,0,0.998046875,-0.0390625,0.017578125,-0.021484375,0.0,0.0,0.0
663711167,530425,0,1.001953125,-0.044921875,0.013671875,-0.03125,0.0,0.0,0.0
663712417,530426,0,0.9921875,-0.03515625,0.009765625,-0.025390625,0.0,0.0,0.0
663713668,530427,0,1.005859375,-0.037109375,0.01171875,-0.025390625,0.0,0.0,0.0
663714920,530428,0,1.0078125,-0.03515625,0.015625,-0.01953125,0.0,0.0,0.0
663716171,530429,0,1.001953125,-0.037109375,0.01953125,-0.017578125,0.0,0.0,0.0
663717422,530430,0,1.01171875,-0.0390625,0.015625,-0.0234375,0.0,0.0,0.0
663718674,530431,0,1.0078125,-0.041015625,0.005859375,-0.03515625,0.0,0.0,0.0
663719924,530432,0,1.005859375,-0.037109375,0.025390625,-0.01171875,0.0,0.0,0.0
663721175,530433,0,1.009765625,-0.0390625,0.01953125,-0.01953125,0.0,0.0,0.0
663722426,530434,0,1.001953125,-0.03515625,0.01171875,-0.0234375,0.0,0.0,0.0
663723677,530435,0,1.0078125,-0.03515625,0.01171875,-0.0234375,0.0,0.0,0.0
663724928,530436,0,1.0,-0.0390625,0.015625,-0.0234375,0.0,0.0,0.0
663726179,530437,0,1.005859375,-0.0390625,0.0078125,-0.03125,0.0,0.0,0.0
663727431,530438,0,1.005859375,-0.037109375,0.021484375,-0.015625,0.0,0.0,0.0
663728681,530439,0,1.005859375,-0.0390625,0.017578125,-0.021484375,0.0,0.0,0.0
663729932,530440,0,1.005859375,-0.0390625,0.01953125,-0.01953125,0.0,0.0,0.0
663731182,530441,0,1.005859375,-0.03515625,0.01953125,-0.015625,0.0,0.0,0.0
663732432,530442,0,0.99609375,-0.0390625,0.015625,-0.0234375,0.0,0.0,0.0
663733684,530443,0,1.0,-0.037109375,0.01171875,-0.025390625,0.0,0.0,0.0
663734934,530444,0,1.00390625,-0.0390625,0.01171875,-0.02734375,0.0,0.0,0.0
663736185,530445,0,1.005859375,-0.0390625,0.013671875,-0.025390625,0.0,0.0,0.0
663737436,530446,0,1.001953125,-0.037109375,0.01171875,-0.025390625,0.0,0.0,0.0
663738687,530447,0,1.005859375,-0.03515625,0.01171875,-0.0234375,0.0,0.0,0.0
663739937,530448,0,1.00390625,-0.044921875,0.013671875,-0.03125,0.0,0.0,0.0
663741187,530449,0,1.009765625,-0.037109375,0.0234375,-0.013671875,0.0,0.0,0.0
663742439,530450,0,1.0078125,-0.037109375,0.005859375,-0.03125,0.0,0.0,0.0
663743690,530451,0,1.015625,-0.03125,0.015625,-0.015625,0.0,0.0,0.0
663744940,530452,0,1.0,-0.037109375,0.021484375,-0.015625,0.0,0.0,0.0
663746192,530453,0,1.0,-0.0390625,0.017578125,-0.021484375,0.0,0.0,0.0
663747443,530454,0,1.0078125,-0.033203125,0.01953125,-0.013671875,0.0,0.0,0.0
663748694,530455,0,1.001953125,-0.037109375,0.017578125,-0.01953125,0.0,0.0,0.0
663749944,530456,0,1.005859375,-0.0390625,0.01171875,-0.02734375,0.0,0.0,0.0
663751194,530457,0,1.001953125,-0.03515625,0.01171875,-0.0234375,0.0,0.0,0.0
663752445,530458,0,1.005859375,-0.037109375,0.013671875,-0.0234375,0.0,0.0,0.0
663753697,530459,0,1.0078125,-0.037109375,0.015625,-0.021484375,0.0,0.0,0.0
663754947,530460,0,1.001953125,-0.037109375,0.017578125,-0.01953125,0.0,0.0,0.0
663756199,530461,0,1.001953125,-0.033203125,0.021484375,-0.01171875,0.0,0.0,0.0
663757449,530462,0,1.005859375,-0.03515625,0.015625,-0.01953125,0.0,0.0,0.0
663758701,530463,0,1.0078125,-0.03515625,0.013671875,-0.021484375,0.0,0.0,0.0
663759951,530464,0,1.005859375,-0.033203125,0.017578125,-0.015625,0.0,0.0,0.0
663761202,530465,0,1.001953125,-0.03515625,0.017578125,-0.017578125,0.0,0.0,0.0
663762454,530466,0,1.001953125,-0.033203125,0.01171875,-0.021484375,0.0,0.0,0.0
663763704,530467,0,0.99609375,-0.029296875,0.01953125,-0.009765625,0.0,0.0,0.0
663764955,530468,0,1.005859375,-0.03125,0.01953125,-0.01171875,0.0,0.0,0.0
663766206,530469,0,1.001953125,-0.041015625,0.01953125,-0.021484375,0.0,0.0,0.0
663767457,530470,0,1.00390625,-0.041015625,0.015625,-0.025390625,0.0,0.0,0.0
663768708,530471,0,0.99609375,-0.03125,0.015625,-0.015625,0.0,0.0,0.0
663769959,530472,0,1.0078125,-0.037109375,0.021484375,-0.015625,0.0,0.0,0.0
663771211,530473,0,1.0,-0.037109375,0.013671875,-0.0234375,0.0,0.0,0.0
663772463,530474,0,0.99609375,-0.037109375,0.01953125,-0.017578125,0.0,0.0,0.0
663773713,530475,0,1.001953125,-0.03515625,0.013671875,-0.021484375,0.0,0.0,0.0
663774965,530476,0,1.005859375,-0.037109375,0.013671875,-0.0234375,0.0,0.0,0.0
663776215,530477,0,1.0,-0.037109375,0.025390625,-0.01171875,0.0,0.0,0.0
663777466,530478,0,1.005859375,-0.03515625,0.01953125,-0.015625,0.0,0.0,0.0
663778716,530479,0,1.0078125,-0.03125,0.021484375,-0.009765625,0.0,0.0,0.0
663779966,530480,0,0.99609375,-0.037109375,0.013671875,-0.0234375,0.0,0.0,0.0
663781216,530481,0,1.001953125,-0.0390625,0.013671875,-0.025390625,0.0,0.0,0.0
663782468,530482,0,1.001953125,-0.037109375,0.015625,-0.021484375,0.0,0.0,0.0
663783719,530483,0,1.009765625,-0.0390625,0.013671875,-0.025390625,0.0,0.0,0.0
663784969,530484,0,1.001953125,-0.037109375,0.017578125,-0.01953125,0.0,0.0,0.0
663786221,530485,0,1.0078125,-0.033203125,0.015625,-0.017578125,0.0,0.0,0.0
663787471,530486,0,1.005859375,-0.03515625,0.01953125,-0.015625,0.0,0.0,0.0
663788723,530487,0,1.001953125,-0.03515625,0.017578125,-0.017578125,0.0,0.0,0.0
663789973,530488,0,1.005859375,-0.03515625,0.013671875,-0.021484375,0.0,0.0,0.0
663791225,530489,0,0.998046875,-0.037109375,0.013671875,-0.0234375,0.0,0.0,0.0
663792476,530490,0,1.0,-0.037109375,0.005859375,-0.03125,0.0,0.0,0.0
663793727,530491,0,1.001953125,-0.04296875,0.005859375,-0.037109375,0.0,0.0,0.0
663794977,530492,0,1.00390625,-0.041015625,0.013671875,-0.02734375,0.0,0.0,0.0
663796228,530493,0,1.01171875,-0.037109375,0.017578125,-0.01953125,0.0,0.0,0.0
663797479,530494,0,1.0078125,-0.03515625,0.015625,-0.01953125,0.0,0.0,0.0
663798730,530495,0,1.009765625,-0.033203125,0.01953125,-0.013671875,0.0,0.0,0.0
663799981,530496,0,1.009765625,-0.03515625,0.01953125,-0.015625,0.0,0.0,0.0
663801233,530497,0,1.005859375,-0.03125,0.013671875,-0.017578125,0.0,0.0,0.0
663802484,530498,0,1.005859375,-0.033203125,0.01953125,-0.013671875,0.0,0.0,0.0
663803734,530499,0,1.00390625,-0.03515625,0.01953125,-0.015625,0.0,0.0,0.0
663804984,530500,0,1.001953125,-0.041015625,0.01953125,-0.021484375,0.0,0.0,0.0
663806235,530501,0,1.00390625,-0.044921875,0.017578125,-0.02734375,0.0,0.0,0.0
663807486,530502,0,1.00390625,-0.04296875,0.015625,-0.02734375,0.0,0.0,0.0
663808737,530503,0,0.998046875,-0.0390625,0.017578125,-0.021484375,0.0,0.0,0.0
663809987,530504,0,1.001953125,-0.0390625,0.021484375,-0.017578125,0.0,0.0,0.0
663811238,530505,0,1.005859375,-0.033203125,0.017578125,-0.015625,0.0,0.0,0.0
663812489,530506,0,1.0,-0.0390625,0.0078125,-0.03125,0.0,0.0,0.0
663813740,530507,0,1.00390625,-0.033203125,0.017578125,-0.015625,0.0,0.0,0.0
663814992,530508,0,1.01171875,-0.037109375,0.015625,-0.021484375,0.0,0.0,0.0
663816242,530509,0,1.00390625,-0.03515625,0.01953125,-0.015625,0.0,0.0,0.0
663817493,530510,0,1.0078125,-0.03125,0.01953125,-0.01171875,0.0,0.0,0.0
663818744,530511,0,1.001953125,-0.041015625,0.00390625,-0.037109375,0.0,0.0,0.0
663819994,530512,0,1.00390625,-0.033203125,0.013671875,-0.01953125,0.0,0.0,0.0
663821245,530513,0,1.0078125,-0.037109375,0.017578125,-0.01953125,0.0,0.0,0.0
663822497,530514,0,1.009765625,-0.03515625,0.015625,-0.01953125,0.0,0.0,0.0
663823749,530515,0,1.009765625,-0.04296875,0.015625,-0.02734375,0.0,0.0,0.0
663824999,530516,0,1.001953125,-0.04296875,0.013671875,-0.029296875,0.0,0.0,0.0
663826250,530517,0,1.001953125,-0.037109375,0.0078125,-0.029296875,0.0,0.0,0.0
663827500,530518,0,1.005859375,-0.037109375,0.015625,-0.021484375,0.0,0.0,0.0
663828752,530519,0,1.00390625,-0.03125,0.017578125,-0.013671875,0.0,0.0,0.0
663830003,530520,0,1.005859375,-0.037109375,0.01953125,-0.017578125,0.0,0.0,0.0
663831254,530521,0,1.005859375,-0.033203125,0.01953125,-0.013671875,0.0,0.0,0.0
663832504,530522,0,1.0078125,-0.03515625,0.01953125,-0.015625,0.0,0.0,0.0
663833756,530523,0,1.001953125,-0.0390625,0.015625,-0.0234375,0.0,0.0,0.0
663835006,530524,0,1.005859375,-0.033203125,0.015625,-0.017578125,0.0,0.0,0.0
663836257,530525,0,1.0,-0.033203125,0.01953125,-0.013671875,0.0,0.0,0.0
663837508,530526,0,1.0,-0.033203125,0.013671875,-0.01953125,0.0,0.0,0.0
663838759,530527,0,1.00390625,-0.03125,0.013671875,-0.017578125,0.0,0.0,0.0
663840009,530528,0,0.998046875,-0.0390625,0.017578125,-0.021484375,0.0,0.0,0.0
663841259,530529,0,1.001953125,-0.037109375,0.017578125,-0.01953125,0.0,0.0,0.0
663842510,530530,0,1.001953125,-0.0390625,0.013671875,-0.025390625,0.0,0.0,0.0
663843762,530531,0,1.0078125,-0.0390625,0.01953125,-0.01953125,0.0,0.0,0.0
663845013,530532,0,1.0078125,-0.03125,0.017578125,-0.013671875,0.0,0.0,0.0
663846271,530533,0,0.998046875,-0.03125,0.0234375,-0.0078125,0.0,0.0,0.0
663847522,530534,0,1.001953125,-0.037109375,0.015625,-0.021484375,0.0,0.0,0.0
663848773,530535,0,1.0078125,-0.03515625,0.015625,-0.01953125,0.0,0.0,0.0
663850025,530536,0,1.001953125,-0.03125,0.015625,-0.015625,0.0,0.0,0.0
663851277,530537,0,1.00390625,-0.033203125,0.013671875,-0.01953125,0.0,0.0,0.0
663852528,530538,0,1.009765625,-0.033203125,0.017578125,-0.015625,0.0,0.0,0.0
663853779,530539,0,1.0,-0.037109375,0.01953125,-0.017578125,0.0,0.0,0.0
663855031,530540,0,1.0,-0.03515625,0.015625,-0.01953125,0.0,0.0,0.0
663856283,530541,0,1.0078125,-0.03125,0.017578125,-0.013671875,0.0,0.0,0.0
663857535,530542,0,1.0,-0.03515625,0.017578125,-0.017578125,0.0,0.0,0.0
663858786,530543,0,1.0,-0.037109375,0.015625,-0.021484375,0.0,0.0,0.0
663860036,530544,0,1.001953125,-0.037109375,0.013671875,-0.0234375,0.0,0.0,0.0
663861287,530545,0,1.001953125,-0.037109375,0.013671875,-0.0234375,0.0,0.0,0.0
663862537,530546,0,1.00390625,-0.0390625,0.009765625,-0.029296875,0.0,0.0,0.0
663863787,530547,0,1.0078125,-0.037109375,0.017578125,-0.01953125,0.0,0.0,0.0
663865038,530548,0,1.0,-0.037109375,0.017578125,-0.01953125,0.0,0.0,0.0
663866289,530549,0,1.0,-0.04296875,0.015625,-0.02734375,0.0,0.0,0.0
663867539,530550,0,0.99609375,-0.037109375,0.017578125,-0.01953125,0.0,0.0,0.0
663868790,530551,0,0.998046875,-0.037109375,0.01171875,-0.025390625,0.0,0.0,0.0
663870042,530552,0,0.99609375,-0.03515625,0.015625,-0.01953125,0.0,0.0,0.0
663871292,530553,0,1.00390625,-0.037109375,0.009765625,-0.02734375,0.0,0.0,0.0
663872543,530554,0,1.001953125,-0.04296875,0.015625,-0.02734375,0.0,0.0,0.0
663873794,530555,0,1.01171875,-0.03125,0.01171875,-0.01953125,0.0,0.0,0.0
663875044,530556,0,1.009765625,-0.041015625,0.021484375,-0.01953125,0.0,0.0,0.0
663876294,530557,0,1.0,-0.037109375,0.01953125,-0.017578125,0.0,0.0,0.0
663877544,530558,0,0.9921875,-0.03515625,0.015625,-0.01953125,0.0,0.0,0.0
663878796,530559,0,1.001953125,-0.0390625,0.017578125,-0.021484375,0.0,0.0,0.0
663880047,530560,0,1.0,-0.037109375,0.013671875,-0.0234375,0.0,0.0,0.0
663881297,530561,0,1.001953125,-0.037109375,0.015625,-0.021484375,0.0,0.0,0.0
663882548,530562,0,1.005859375,-0.033203125,0.013671875,-0.01953125,0.0,0.0,0.0
663883800,530563,0,1.0078125,-0.041015625,0.015625,-0.025390625,0.0,0.0,0.0
663885050,530564,0,1.00390625,-0.041015625,0.013671875,-0.02734375,0.0,0.0,0.0
663886300,530565,0,1.01171875,-0.0390625,0.017578125,-0.021484375,0.0,0.0,0.0
663887550,530566,0,1.001953125,-0.037109375,0.017578125,-0.01953125,0.0,0.0,0.0
663888801,530567,0,1.005859375,-0.041015625,0.017578125,-0.0234375,0.0,0.0,0.0
663890052,530568,0,1.00390625,-0.037109375,0.01953125,-0.017578125,0.0,0.0,0.0
663891302,530569,0,1.001953125,-0.03515625,0.015625,-0.01953125,0.0,0.0,0.0
663892553,530570,0,1.009765625,-0.033203125,0.015625,-0.017578125,0.0,0.0,0.0
663893804,530571,0,1.00390625,-0.041015625,0.013671875,-0.02734375,0.0,0.0,0.0
663895054,530572,0,1.001953125,-0.0390625,0.015625,-0.0234375,0.0,0.0,0.0
663896305,530573,0,1.0078125,-0.0390625,0.015625,-0.0234375,0.0,0.0,0.0
663897556,530574,0,1.01171875,-0.033203125,0.017578125,-0.015625,0.0,0.0,0.0
663898807,530575,0,1.0,-0.033203125,0.025390625,-0.0078125,0.0,0.0,0.0
663900058,530576,0,1.009765625,-0.03125,0.01171875,-0.01953125,0.0,0.0,0.0
663901310,530577,0,1.0078125,-0.033203125,0.01953125,-0.013671875,0.0,0.0,0.0
663902560,530578,0,1.009765625,-0.03515625,0.01171875,-0.0234375,0.0,0.0,0.0
663903810,530579,0,1.0,-0.03515625,0.009765625,-0.025390625,0.0,0.0,0.0
663905060,530580,0,0.9921875,-0.03515625,0.01171875,-0.0234375,0.0,0.0,0.0
663906311,530581,0,1.0,-0.03515625,0.01171875,-0.0234375,0.0,0.0,0.0
663907561,530582,0,1.00390625,-0.03515625,0.021484375,-0.013671875,0.0,0.0,0.0
663908813,530583,0,1.001953125,-0.03515625,0.013671875,-0.021484375,0.0,0.0,0.0
663910063,530584,0,1.00390625,-0.03515625,0.013671875,-0.021484375,0.0,0.0,0.0
663911313,530585,0,1.009765625,-0.037109375,0.005859375,-0.03125,0.0,0.0,0.0
663912565,530586,0,1.00390625,-0.033203125,0.01171875,-0.021484375,0.0,0.0,0.0
663913816,530587,0,1.001953125,-0.03515625,0.017578125,-0.017578125,0.0,0.0,0.0
663915066,530588,0,1.005859375,-0.037109375,0.01171875,-0.025390625,0.0,0.0,0.0
663916316,530589,0,1.0,-0.033203125,0.017578125,-0.015625,0.0,0.0,0.0
663917567,530590,0,1.005859375,-0.03515625,0.005859375,-0.029296875,0.0,0.0,0.0
663918817,530591,0,1.005859375,-0.033203125,0.017578125,-0.015625,0.0,0.0,0.0
663920069,530592,0,1.001953125,-0.037109375,0.017578125,-0.01953125,0.0,0.0,0.0
663921319,530593,0,1.0078125,-0.03515625,0.015625,-0.01953125,0.0,0.0,0.0
663922570,530594,0,1.001953125,-0.033203125,0.021484375,-0.01171875,0.0,0.0,0.0
663923822,530595,0,1.005859375,-0.037109375,0.02734375,-0.009765625,0.0,0.0,0.0
663925072,530596,0,1.013671875,-0.033203125,0.01953125,-0.013671875,0.0,0.0,0.0
663926322,530597,0,1.0078125,-0.03515625,0.013671875,-0.021484375,0.0,0.0,0.0
663927572,530598,0,1.0,-0.037109375,0.009765625,-0.02734375,0.0,0.0,0.0
663928823,530599,0,0.99609375,-0.033203125,0.013671875,-0.01953125,0.0,0.0,0.0
663930075,530600,0,1.005859375,-0.0390625,0.01171875,-0.02734375,0.0,0.0,0.0
663931326,530601,0,1.0078125,-0.03515625,0.021484375,-0.013671875,0.0,0.0,0.0
663932576,530602,0,1.001953125,-0.03515625,0.0234375,-0.01171875,0.0,0.0,0.0
663933827,530603,0,0.998046875,-0.03515625,0.015625,-0.01953125,0.0,0.0,0.0
663935077,530604,0,1.009765625,-0.037109375,0.015625,-0.021484375,0.0,0.0,0.0
663936327,530605,0,1.005859375,-0.037109375,0.013671875,-0.0234375,0.0,0.0,0.0
663937578,530606,0,1.0078125,-0.033203125,0.01953125,-0.013671875,0.0,0.0,0.0
663938829,530607,0,1.001953125,-0.0390625,0.01953125,-0.01953125,0.0,0.0,0.0
663940080,530608,0,1.00390625,-0.041015625,0.0234375,-0.017578125,0.0,0.0,0.0
663941332,530609,0,1.00390625,-0.033203125,0.017578125,-0.015625,0.0,0.0,0.0
663942582,530610,0,0.998046875,-0.03515625,0.015625,-0.01953125,0.0,0.0,0.0
663943834,530611,0,1.00390625,-0.0390625,0.017578125,-0.021484375,0.0,0.0,0.0
663945085,530612,0,0.998046875,-0.03515625,0.017578125,-0.017578125,0.0,0.0,0.0
663946335,530613,0,1.001953125,-0.03515625,0.01171875,-0.0234375,0.0,0.0,0.0
663947586,530614,0,1.0078125,-0.03515625,0.017578125,-0.017578125,0.0,0.0,0.0
663948838,530615,0,1.0,-0.0390625,0.01953125,-0.01953125,0.0,0.0,0.0
663950088,530616,0,1.009765625,-0.041015625,0.01171875,-0.029296875,0.0,0.0,0.0
663951338,530617,0,1.001953125,-0.037109375,0.0078125,-0.029296875,0.0,0.0,0.0
663952589,530618,0,0.998046875,-0.03515625,0.013671875,-0.021484375,0.0,0.0,0.0
663953839,530619,0,1.0,-0.0390625,0.013671875,-0.025390625,0.0,0.0,0.0
663955091,530620,0,1.001953125,-0.037109375,0.013671875,-0.0234375,0.0,0.0,0.0
663956341,530621,0,1.0078125,-0.03515625,0.015625,-0.01953125,0.0,0.0,0.0
663957592,530622,0,1.00390625,-0.037109375,0.015625,-0.021484375,0.0,0.0,0.0
663958844,530623,0,1.009765625,-0.037109375,0.009765625,-0.02734375,0.0,0.0,0.0
663960094,530624,0,1.001953125,-0.037109375,0.009765625,-0.02734375,0.0,0.0,0.0
663961344,530625,0,1.0,-0.0390625,0.017578125,-0.021484375,0.0,0.0,0.0
663962595,530626,0,1.00390625,-0.03515625,0.017578125,-0.017578125,0.0,0.0,0.0
663963846,530627,0,1.001953125,-0.03515625,0.01953125,-0.015625,0.0,0.0,0.0
663965096,530628,0,1.005859375,-0.033203125,0.017578125,-0.015625,0.0,0.0,0.0
663966346,530629,0,1.005859375,-0.03515625,0.0234375,-0.01171875,0.0,0.0,0.0
663967597,530630,0,1.001953125,-0.0390625,0.015625,-0.0234375,0.0,0.0,0.0
663968847,530631,0,1.0078125,-0.03515625,0.021484375,-0.013671875,0.0,0.0,0.0
663970097,530632,0,1.005859375,-0.041015625,0.021484375,-0.01953125,0.0,0.0,0.0
663971349,530633,0,1.005859375,-0.037109375,0.0234375,-0.013671875,0.0,0.0,0.0
663972599,530634,0,1.005859375,-0.0390625,0.017578125,-0.021484375,0.0,0.0,0.0
663973850,530635,0,1.00390625,-0.03515625,0.017578125,-0.017578125,0.0,0.0,0.0
663975101,530636,0,1.005859375,-0.03125,0.017578125,-0.013671875,0.0,0.0,0.0
663976351,530637,0,1.015625,-0.03515625,0.015625,-0.01953125,0.0,0.0,0.0
663977602,530638,0,0.99609375,-0.0390625,0.013671875,-0.025390625,0.0,0.0,0.0
663978853,530639,0,1.001953125,-0.041015625,0.01171875,-0.029296875,0.0,0.0,0.0
663980103,530640,0,0.994140625,-0.041015625,0.017578125,-0.0234375,0.0,0.0,0.0
663981355,530641,0,0.998046875,-0.037109375,0.01953125,-0.017578125,0.0,0.0,0.0
663982606,530642,0,1.01953125,-0.03515625,0.017578125,-0.017578125,0.0,0.0,0.0
663983856,530643,0,1.00390625,-0.0390625,0.021484375,-0.017578125,0.0,0.0,0.0
663985108,530644,0,0.98828125,-0.048828125,0.0078125,-0.041015625,0.0,0.0,0.0
663986359,530645,0,1.0,-0.048828125,0.0078125,-0.041015625,0.0,0.0,0.0
663987610,530646,0,1.001953125,-0.03515625,0.01953125,-0.015625,0.0,0.0,0.0
663988860,530647,0,1.00390625,-0.029296875,0.01953125,-0.009765625,0.0,0.0,0.0
663990110,530648,0,1.001953125,-0.03125,0.025390625,-0.005859375,0.0,0.0,0.0
663991362,530649,0,1.009765625,-0.033203125,0.017578125,-0.015625,0.0,0.0,0.0
663992614,530650,0,1.001953125,-0.041015625,0.01171875,-0.029296875,0.0,0.0,0.0
663993865,530651,0,1.001953125,-0.037109375,0.009765625,-0.02734375,0.0,0.0,0.0
663995115,530652,0,1.00390625,-0.0390625,0.0078125,-0.03125,0.0,0.0,0.0
663996366,530653,0,1.005859375,-0.037109375,0.01171875,-0.025390625,0.0,0.0,0.0
663997616,530654,0,0.998046875,-0.03515625,0.017578125,-0.017578125,0.0,0.0,0.0
663998867,530655,0,1.0078125,-0.03125,0.021484375,-0.009765625,0.0,0.0,0.0
664000118,530656,0,1.00390625,-0.033203125,0.017578125,-0.015625,0.0,0.0,0.0
664001368,530657,0,1.0078125,-0.037109375,0.021484375,-0.015625,0.0,0.0,0.0
664002619,530658,0,1.0078125,-0.03515625,0.01953125,-0.015625,0.0,0.0,0.0
664003871,530659,0,1.01171875,-0.037109375,0.01953125,-0.017578125,0.0,0.0,0.0
664005121,530660,0,0.994140625,-0.037109375,0.0234375,-0.013671875,0.0,0.0,0.0
664006371,530661,0,1.01171875,-0.037109375,0.015625,-0.021484375,0.0,0.0,0.0
664007623,530662,0,1.005859375,-0.03515625,0.017578125,-0.017578125,0.0,0.0,0.0
664008873,530663,0,0.994140625,-0.033203125,0.017578125,-0.015625,0.0,0.0,0.0
664010124,530664,0,0.998046875,-0.037109375,0.015625,-0.021484375,0.0,0.0,0.0
664011376,530665,0,1.0,-0.037109375,0.01171875,-0.025390625,0.0,0.0,0.0
664012626,530666,0,1.005859375,-0.041015625,0.001953125,-0.0390625,0.0,0.0,0.0
664013877,530667,0,1.017578125,-0.03515625,0.015625,-0.01953125,0.0,0.0,0.0
664015127,530668,0,1.001953125,-0.037109375,0.015625,-0.021484375,0.0,0.0,0.0
664016377,530669,0,1.00390625,-0.03515625,0.017578125,-0.017578125,0.0,0.0,0.0
664017629,530670,0,1.0,-0.03515625,0.013671875,-0.021484375,0.0,0.0,0.0
664018879,530671,0,1.009765625,-0.03515625,0.017578125,-0.017578125,0.0,0.0,0.0
664020130,530672,0,1.005859375,-0.0390625,0.01171875,-0.02734375,0.0,0.0,0.0
664021381,530673,0,1.005859375,-0.037109375,0.01171875,-0.025390625,0.0,0.0,0.0
664022631,530674,0,1.0,-0.03515625,0.013671875,-0.021484375,0.0,0.0,0.0
664023883,530675,0,1.00390625,-0.037109375,0.01171875,-0.025390625,0.0,0.0,0.0
664025134,530676,0,1.001953125,-0.037109375,0.01953125,-0.017578125,0.0,0.0,0.0
664026384,530677,0,1.001953125,-0.03515625,0.021484375,-0.013671875,0.0,0.0,0.0
664027635,530678,0,1.001953125,-0.03515625,0.013671875,-0.021484375,0.0,0.0,0.0
664028887,530679,0,1.005859375,-0.03515625,0.01953125,-0.015625,0.0,0.0,0.0
664030137,530680,0,1.001953125,-0.03515625,0.017578125,-0.017578125,0.0,0.0,0.0
664031388,530681,0,1.0,-0.037109375,0.017578125,-0.01953125,0.0,0.0,0.0
664032639,530682,0,1.005859375,-0.0390625,0.01171875,-0.02734375,0.0,0.0,0.0
664033889,530683,0,1.005859375,-0.03515625,0.00390625,-0.03125,0.0,0.0,0.0
664035140,530684,0,1.001953125,-0.03515625,0.01953125,-0.015625,0.0,0.0,0.0
664036392,530685,0,1.0,-0.041015625,0.015625,-0.025390625,0.0,0.0,0.0
664037642,530686,0,1.0078125,-0.041015625,0.01171875,-0.029296875,0.0,0.0,0.0
664038894,530687,0,1.01171875,-0.03515625,0.015625,-0.01953125,0.0,0.0,0.0
664040145,530688,0,1.005859375,-0.0390625,0.015625,-0.0234375,0.0,0.0,0.0
664041396,530689,0,1.0078125,-0.037109375,0.015625,-0.021484375,0.0,0.0,0.0
664042647,530690,0,1.001953125,-0.0390625,0.009765625,-0.029296875,0.0,0.0,0.0
664043899,530691,0,1.005859375,-0.037109375,0.01171875,-0.025390625,0.0,0.0,0.0
664045150,530692,0,1.0,-0.041015625,0.015625,-0.025390625,0.0,0.0,0.0
664046400,530693,0,1.009765625,-0.033203125,0.01171875,-0.021484375,0.0,0.0,0.0
664047652,530694,0,0.998046875,-0.033203125,0.01953125,-0.013671875,0.0,0.0,0.0
664048902,530695,0,1.001953125,-0.03125,0.015625,-0.015625,0.0,0.0,0.0
664050152,530696,0,1.009765625,-0.033203125,0.015625,-0.017578125,0.0,0.0,0.0
664051402,530697,0,1.0078125,-0.03125,0.0234375,-0.0078125,0.0,0.0,0.0
664052653,530698,0,1.005859375,-0.033203125,0.021484375,-0.01171875,0.0,0.0,0.0
664053904,530699,0,1.00390625,-0.03125,0.01953125,-0.01171875,0.0,0.0,0.0
664055154,530700,0,1.005859375,-0.03515625,0.021484375,-0.013671875,0.0,0.0,0.0
664056406,530701,0,1.001953125,-0.03515625,0.015625,-0.01953125,0.0,0.0,0.0
664057657,530702,0,1.005859375,-0.03515625,0.01171875,-0.0234375,0.0,0.0,0.0
664058907,530703,0,1.005859375,-0.04296875,0.017578125,-0.025390625,0.0,0.0,0.0
664060158,530704,0,0.998046875,-0.0390625,0.01953125,-0.01953125,0.0,0.0,0.0
664061408,530705,0,1.00390625,-0.0390625,0.015625,-0.0234375,0.0,0.0,0.0
664062659,530706,0,1.0078125,-0.037109375,0.01171875,-0.025390625,0.0,0.0,0.0
664063910,530707,0,0.98828125,-0.037109375,0.017578125,-0.01953125,0.0,0.0,0.0
664065160,530708,0,1.001953125,-0.0390625,0.009765625,-0.029296875,0.0,0.0,0.0
664066410,530709,0,1.00390625,-0.041015625,0.005859375,-0.03515625,0.0,0.0,0.0
664067662,530710,0,1.00390625,-0.044921875,0.015625,-0.029296875,0.0,0.0,0.0
664068912,530711,0,1.00390625,-0.044921875,0.00390625,-0.041015625,0.0,0.0,0.0
664070163,530712,0,1.00390625,-0.044921875,0.009765625,-0.03515625,0.0,0.0,0.0
664071413,530713,0,0.998046875,-0.04296875,0.0078125,-0.03515625,0.0,0.0,0.0
664072664,530714,0,0.998046875,-0.044921875,0.0078125,-0.037109375,0.0,0.0,0.0
664073915,530715,0,1.001953125,-0.0390625,0.017578125,-0.021484375,0.0,0.0,0.0
664075167,530716,0,1.005859375,-0.044921875,0.0078125,-0.037109375,0.0,0.0,0.0
664076417,530717,0,1.001953125,-0.0390625,0.005859375,-0.033203125,0.0,0.0,0.0
664077668,530718,0,1.005859375,-0.046875,0.0078125,-0.0390625,0.0,0.0,0.0
664078920,530719,0,1.001953125,-0.044921875,0.0078125,-0.037109375,0.0,0.0,0.0
664080171,530720,0,0.998046875,-0.044921875,0.01171875,-0.033203125,0.0,0.0,0.0
664081422,530721,0,1.0,-0.048828125,0.005859375,-0.04296875,0.0,0.0,0.0
664082674,530722,0,1.005859375,-0.046875,0.0078125,-0.0390625,0.0,0.0,0.0
664083924,530723,0,1.005859375,-0.04296875,0.009765625,-0.033203125,0.0,0.0,0.0
664085175,530724,0,1.001953125,-0.0390625,0.013671875,-0.025390625,0.0,0.0,0.0
664086426,530725,0,1.005859375,-0.0390625,0.013671875,-0.025390625,0.0,0.0,0.0
664087677,530726,0,1.013671875,-0.0390625,0.013671875,-0.025390625,0.0,0.0,0.0
664088928,530727,0,0.998046875,-0.0390625,0.0234375,-0.015625,0.0,0.0,0.0
664090179,530728,0,1.00390625,-0.04296875,0.017578125,-0.025390625,0.0,0.0,0.0
664091431,530729,0,1.0,-0.046875,0.009765625,-0.037109375,0.0,0.0,0.0
664092681,530730,0,0.990234375,-0.052734375,0.0078125,-0.044921875,0.0,0.0,0.0
664093932,530731,0,0.998046875,-0.046875,0.0078125,-0.0390625,0.0,0.0,0.0
664095182,530732,0,1.001953125,-0.05078125,0.013671875,-0.037109375,0.0,0.0,0.0
664096432,530733,0,0.99609375,-0.046875,0.015625,-0.03125,0.0,0.0,0.0
664097684,530734,0,1.005859375,-0.044921875,0.005859375,-0.0390625,0.0,0.0,0.0
664098934,530735,0,0.998046875,-0.04296875,0.015625,-0.02734375,0.0,0.0,0.0
664100185,530736,0,1.0,-0.041015625,0.0078125,-0.033203125,0.0,0.0,0.0
664101436,530737,0,1.001953125,-0.0390625,0.013671875,-0.025390625,0.0,0.0,0.0
664102687,530738,0,1.005859375,-0.05078125,0.009765625,-0.041015625,0.0,0.0,0.0
664103937,530739,0,0.998046875,-0.04296875,0.013671875,-0.029296875,0.0,0.0,0.0
664105187,530740,0,1.009765625,-0.044921875,0.015625,-0.029296875,0.0,0.0,0.0
664106439,530741,0,0.99609375,-0.041015625,0.013671875,-0.02734375,0.0,0.0,0.0
664107690,530742,0,1.001953125,-0.037109375,0.017578125,-0.01953125,0.0,0.0,0.0
664108940,530743,0,1.001953125,-0.033203125,0.017578125,-0.015625,0.0,0.0,0.0
664110192,530744,0,1.0,-0.03125,0.021484375,-0.009765625,0.0,0.0,0.0
664111443,530745,0,1.013671875,-0.037109375,0.021484375,-0.015625,0.0,0.0,0.0
664112694,530746,0,1.001953125,-0.04296875,0.017578125,-0.025390625,0.0,0.0,0.0
664113944,530747,0,0.994140625,-0.060546875,0.015625,-0.044921875,0.0,0.0,0.0
664115194,530748,0,0.9921875,-0.048828125,0.005859375,-0.04296875,0.0,0.0,0.0
664116445,530749,0,0.99609375,-0.041015625,0.001953125,-0.0390625,0.0,0.0,0.0
664117697,530750,0,1.00390625,-0.052734375,0.00390625,-0.048828125,0.0,0.0,0.0
664118947,530751,0,0.990234375,-0.06640625,0.00390625,-0.0625,0.0,0.0,0.0
664120199,530752,0,0.994140625,-0.091796875,-0.013671875,-0.10546875,0.0,0.0,0.0
664121449,530753,0,0.9765625,-0.109375,-0.021484375,-0.130859375,0.0,0.0,0.0
664122701,530754,0,0.982421875,-0.0703125,-0.00390625,-0.07421875,0.0,0.0,0.0
664123951,530755,0,0.994140625,-0.08984375,-0.01171875,-0.1015625,0.0,0.0,0.0
664125202,530756,0,0.986328125,-0.162109375,-0.033203125,-0.1953125,0.0,0.0,0.0
664126454,530757,0,0.986328125,-0.255859375,-0.10546875,-0.361328125,0.0,0.0,0.0
664127704,530758,0,0.73828125,-1.455078125,-0.79296875,-2.248046875,0.0,0.0,0.0
664128955,530759,0,1.423828125,-1.08984375,0.201171875,-0.888671875,0.0,0.0,0.0
664130206,530760,0,0.99609375,-0.5,-0.419921875,-0.919921875,0.0,0.0,0.0
664131457,530761,0,0.96484375,-0.423828125,0.115234375,-0.30859375,0.0,0.0,0.0
664132708,530762,0,0.951171875,-0.123046875,-0.203125,-0.326171875,0.0,0.0,0.0
664133959,530763,0,1.076171875,-0.060546875,0.10546875,0.044921875,0.0,0.0,0.0
664135211,530764,0,0.931640625,0.0078125,-0.037109375,-0.029296875,0.0,0.0,0.0
664136463,530765,0,1.01171875,0.12109375,0.07421875,0.1953125,0.0,0.0,0.0
664137713,530766,0,1.0234375,0.19921875,0.052734375,0.251953125,0.0,0.0,0.0
664138965,530767,0,1.0234375,0.17578125,0.06640625,0.2421875,0.0,0.0,0.0
664140215,530768,0,1.041015625,0.15625,0.044921875,0.201171875,0.0,0.0,0.0
664141466,530769,0,1.00390625,0.126953125,0.0703125,0.197265625,0.0,0.0,0.0
664142716,530770,0,1.01953125,0.095703125,0.046875,0.142578125,0.0,0.0,0.0
664143966,530771,0,1.00390625,-0.03125,0.009765625,-0.021484375,0.0,0.0,0.0
664145216,530772,0,0.98828125,-0.123046875,-0.033203125,-0.15625,0.0,0.0,0.0
664146468,530773,0,0.98828125,-0.232421875,-0.064453125,-0.296875,0.0,0.0,0.0
664147719,530774,0,1.013671875,-0.263671875,-0.072265625,-0.3359375,0.0,0.0,0.0
664148969,530775,0,0.99609375,-0.306640625,-0.083984375,-0.390625,0.0,0.0,0.0
664150221,530776,0,0.966796875,-0.40234375,-0.1015625,-0.50390625,0.0,0.0,0.0
664151471,530777,0,0.974609375,-0.439453125,-0.13671875,-0.576171875,0.0,0.0,0.0
664152723,530778,0,0.98828125,-0.384765625,-0.126953125,-0.51171875,0.0,0.0,0.0
664153973,530779,0,1.009765625,-0.30078125,-0.091796875,-0.392578125,0.0,0.0,0.0
664155225,530780,0,0.982421875,-0.205078125,-0.083984375,-0.2890625,0.0,0.0,0.0
664156476,530781,0,0.9453125,-0.359375,-0.09765625,-0.45703125,0.0,0.0,0.0
664157727,530782,0,0.92578125,-0.865234375,-0.255859375,-1.12109375,0.0,0.0,0.0
664158977,530783,0,0.935546875,-1.734375,-0.470703125,-2.205078125,0.0,0.0,0.0
664160228,530784,0,0.744140625,-3.234375,-0.9921875,-4.2265625,0.0,0.0,0.0
664161479,530785,0,1.1875,-3.54296875,-1.3828125,-4.92578125,0.0,0.0,0.0
664162730,530786,0,-0.205078125,-4.0,-1.1640625,-5.1640625,0.0,0.0,0.0
664163981,530787,0,0.041015625,-4.0,-3.880859375,-7.880859375,0.0,0.0,0.0
664165233,530788,0,3.177734375,-4.0,-1.896484375,-5.896484375,0.0,0.0,0.0
664166484,530789,0,0.6953125,-1.796875,-2.41015625,-4.20703125,0.0,0.0,0.0
664167734,530790,0,0.125,0.15234375,-0.986328125,-0.833984375,0.0,0.0,0.0
664168984,530791,0,1.34375,2.048828125,-0.916015625,1.1328125,0.0,0.0,0.0
664170235,530792,0,1.986328125,3.5859375,-0.125,3.4609375,0.0,0.0,0.0
664171486,530793,0,0.8828125,3.998046875,1.2265625,5.224609375,0.0,0.0,0.0
664172737,530794,0,0.384765625,3.998046875,1.646484375,5.64453125,0.0,0.0,0.0
664173987,530795,0,1.4765625,3.998046875,2.001953125,6.0,0.0,0.0,0.0
664175238,530796,0,0.91015625,3.998046875,1.95703125,5.955078125,0.0,0.0,0.0
664176489,530797,0,1.12890625,3.998046875,1.802734375,5.80078125,0.0,0.0,0.0
664177740,530798,0,1.42578125,3.998046875,1.591796875,5.58984375,0.0,0.0,0.0
664178992,530799,0,1.005859375,3.509765625,1.1875,4.697265625,0.0,0.0,0.0
664180242,530800,0,0.90625,2.341796875,0.654296875,2.99609375,0.0,0.0,0.0
664181493,530801,0,1.046875,1.08984375,0.251953125,1.341796875,0.0,0.0,0.0
664182744,530802,0,1.005859375,-0.11328125,-0.267578125,-0.380859375,0.0,0.0,0.0
664183994,530803,0,1.16015625,-1.26171875,-0.62890625,-1.890625,0.0,0.0,0.0
664185245,530804,0,1.05859375,-2.16796875,-0.810546875,-2.978515625,0.0,0.0,0.0
664186497,530805,0,0.806640625,-2.89453125,-1.0390625,-3.93359375,0.0,0.0,0.0
664187749,530806,0,0.919921875,-3.3671875,-1.1328125,-4.5,0.0,0.0,0.0
664188999,530807,0,0.85546875,-3.5703125,-1.091796875,-4.662109375,0.0,0.0,0.0
664190250,530808,0,0.73828125,-3.482421875,-1.12890625,-4.611328125,0.0,0.0,0.0
664191500,530809,0,0.92578125,-3.177734375,-1.0390625,-4.216796875,0.0,0.0,0.0
664192752,530810,0,1.001953125,-2.6640625,-0.916015625,-3.580078125,0.0,0.0,0.0
664194003,530811,0,0.9921875,-2.005859375,-0.7734375,-2.779296875,0.0,0.0,0.0
664195254,530812,0,0.998046875,-1.251953125,-0.517578125,-1.76953125,0.0,0.0,0.0
664196504,530813,0,0.97265625,-0.490234375,-0.275390625,-0.765625,0.0,0.0,0.0
664197756,530814,0,0.978515625,0.255859375,-0.056640625,0.19921875,0.0,0.0,0.0
664199006,530815,0,1.009765625,0.921875,0.1875,1.109375,0.0,0.0,0.0
664200257,530816,0,0.9921875,1.466796875,0.41015625,1.876953125,0.0,0.0,0.0
664201508,530817,0,1.09765625,1.85546875,0.53125,2.38671875,0.0,0.0,0.0
664202759,530818,0,1.185546875,2.08203125,0.6484375,2.73046875,0.0,0.0,0.0
664204009,530819,0,1.078125,2.166015625,0.736328125,2.90234375,0.0,0.0,0.0
664205259,530820,0,1.001953125,2.080078125,0.6953125,2.775390625,0.0,0.0,0.0
664206510,530821,0,1.091796875,1.85546875,0.669921875,2.525390625,0.0,0.0,0.0
664207762,530822,0,1.009765625,1.52734375,0.564453125,2.091796875,0.0,0.0,0.0
664209013,530823,0,0.99609375,1.123046875,0.380859375,1.50390625,0.0,0.0,0.0
664210271,530824,0,1.0703125,0.662109375,0.236328125,0.8984375,0.0,0.0,0.0
664211522,530825,0,1.064453125,0.171875,0.044921875,0.216796875,0.0,0.0,0.0
664212773,530826,0,1.0546875,-0.271484375,-0.1015625,-0.373046875,0.0,0.0,0.0
664214025,530827,0,0.98828125,-0.65625,-0.1953125,-0.8515625,0.0,0.0,0.0
664215277,530828,0,0.935546875,-0.984375,-0.30078125,-1.28515625,0.0,0.0,0.0
664216528,530829,0,1.005859375,-1.244140625,-0.39453125,-1.638671875,0.0,0.0,0.0
664217779,530830,0,0.99609375,-1.314453125,-0.380859375,-1.6953125,0.0,0.0,0.0
664219031,530831,0,0.966796875,-1.34765625,-0.431640625,-1.779296875,0.0,0.0,0.0
664220283,530832,0,0.9921875,-1.267578125,-0.404296875,-1.671875,0.0,0.0,0.0
664221535,530833,0,1.01953125,-1.099609375,-0.36328125,-1.462890625,0.0,0.0,0.0
664222786,530834,0,0.96484375,-0.869140625,-0.26953125,-1.138671875,0.0,0.0,0.0
664224036,530835,0,0.947265625,-0.59375,-0.087890625,-0.681640625,0.0,0.0,0.0
664225287,530836,0,0.984375,-0.2890625,-0.001953125,-0.291015625,0.0,0.0,0.0
664226537,530837,0,0.99609375,0.27734375,0.0859375,0.36328125,0.0,0.0,0.0
664227787,530838,0,1.017578125,0.498046875,0.15625,0.654296875,0.0,0.0,0.0
664229038,530839,0,1.056640625,0.673828125,0.21875,0.892578125,0.0,0.0,0.0
664230289,530840,0,1.04296875,0.7890625,0.283203125,1.072265625,0.0,0.0,0.0
664231539,530841,0,1.009765625,0.833984375,0.314453125,1.1484375,0.0,0.0,0.0
664232790,530842,0,1.0078125,0.8125,0.3046875,1.1171875,0.0,0.0,0.0
664234042,530843,0,1.0234375,0.73046875,0.28515625,1.015625,0.0,0.0,0.0
664235292,530844,0,1.03125,0.60546875,0.232421875,0.837890625,0.0,0.0,0.0
664236543,530845,0,1.037109375,0.443359375,0.16796875,0.611328125,0.0,0.0,0.0
664237794,530846,0,1.05078125,0.25390625,0.107421875,0.361328125,0.0,0.0,0.0
664239044,530847,0,1.021484375,0.0625,0.048828125,0.111328125,0.0,0.0,0.0
664240294,530848,0,0.99609375,-0.12890625,-0.0234375,-0.15234375,0.0,0.0,0.0
664241544,530849,0,0.98046875,-0.26171875,-0.060546875,-0.322265625,0.0,0.0,0.0
664242796,530850,0,0.98828125,-0.40625,-0.10546875,-0.51171875,0.0,0.0,0.0
664244047,530851,0,0.974609375,-0.494140625,-0.138671875,-0.6328125,0.0,0.0,0.0
664245297,530852,0,0.99609375,-0.556640625,-0.154296875,-0.7109375,0.0,0.0,0.0
664246548,530853,0,1.017578125,-0.5546875,-0.162109375,-0.716796875,0.0,0.0,0.0
664247800,530854,0,0.994140625,-0.521484375,-0.1640625,-0.685546875,0.0,0.0,0.0
664249050,530855,0,0.9765625,-0.4609375,-0.130859375,-0.591796875,0.0,0.0,0.0
664250300,530856,0,0.9765625,-0.361328125,-0.107421875,-0.46875,0.0,0.0,0.0
664251550,530857,0,0.984375,-0.25390625,-0.068359375,-0.322265625,0.0,0.0,0.0
664252801,530858,0,1.0,-0.13671875,-0.029296875,-0.166015625,0.0,0.0,0.0
664254052,530859,0,1.013671875,-0.025390625,0.001953125,-0.0234375,0.0,0.0,0.0
664255302,530860,0,1.041015625,0.078125,0.03125,0.109375,0.0,0.0,0.0
664256553,530861,0,1.03515625,0.173828125,0.064453125,0.23828125,0.0,0.0,0.0
664257804,530862,0,1.0,0.23828125,0.103515625,0.341796875,0.0,0.0,0.0
664259054,530863,0,0.99609375,0.28125,0.115234375,0.396484375,0.0,0.0,0.0
664260305,530864,0,1.005859375,0.29296875,0.123046875,0.416015625,0.0,0.0,0.0
664261556,530865,0,1.015625,0.28125,0.119140625,0.400390625,0.0,0.0,0.0
664262807,530866,0,1.02734375,0.24609375,0.095703125,0.341796875,0.0,0.0,0.0
664264058,530867,0,1.044921875,0.203125,0.0859375,0.2890625,0.0,0.0,0.0
664265310,530868,0,1.03515625,0.134765625,0.06640625,0.201171875,0.0,0.0,0.0
664266560,530869,0,0.9921875,0.060546875,0.046875,0.107421875,0.0,0.0,0.0
664267810,530870,0,0.984375,-0.01953125,0.017578125,-0.001953125,0.0,0.0,0.0
664269060,530871,0,0.98828125,-0.0859375,-0.001953125,-0.087890625,0.0,0.0,0.0
664270311,530872,0,0.994140625,-0.140625,-0.025390625,-0.166015625,0.0,0.0,0.0
664271561,530873,0,0.998046875,-0.185546875,-0.048828125,-0.234375,0.0,0.0,0.0
664272813,530874,0,1.005859375,-0.22265625,-0.052734375,-0.275390625,0.0,0.0,0.0
664274063,530875,0,1.009765625,-0.236328125,-0.0703125,-0.306640625,0.0,0.0,0.0
664275313,530876,0,0.998046875,-0.234375,-0.06640625,-0.30078125,0.0,0.0,0.0
664276565,530877,0,0.986328125,-0.22265625,-0.05859375,-0.28125,0.0,0.0,0.0
664277816,530878,0,0.986328125,-0.18359375,-0.033203125,-0.216796875,0.0,0.0,0.0
664279066,530879,0,0.98828125,-0.1484375,-0.015625,-0.1640625,0.0,0.0,0.0
664280316,530880,0,0.99609375,-0.052734375,-0.001953125,-0.0546875,0.0,0.0,0.0
664281567,530881,0,1.017578125,-0.0078125,0.015625,0.0078125,0.0,0.0,0.0
664282817,530882,0,1.017578125,0.03515625,0.03125,0.06640625,0.0,0.0,0.0
664284069,530883,0,1.001953125,0.07421875,0.04296875,0.1171875,0.0,0.0,0.0
664285319,530884,0,1.0,0.08984375,0.056640625,0.146484375,0.0,0.0,0.0
664286570,530885,0,1.00390625,0.111328125,0.060546875,0.171875,0.0,0.0,0.0
664287822,530886,0,1.0078125,0.111328125,0.0625,0.173828125,0.0,0.0,0.0
664289072,530887,0,1.013671875,0.107421875,0.05859375,0.166015625,0.0,0.0,0.0
664290322,530888,0,1.025390625,0.095703125,0.048828125,0.14453125,0.0,0.0,0.0
664291572,530889,0,1.015625,0.06640625,0.044921875,0.111328125,0.0,0.0,0.0
664292823,530890,0,1.001953125,0.037109375,0.037109375,0.07421875,0.0,0.0,0.0
664294075,530891,0,0.994140625,0.005859375,0.02734375,0.033203125,0.0,0.0,0.0
664295326,530892,0,1.001953125,-0.02734375,0.021484375,-0.005859375,0.0,0.0,0.0
664296576,530893,0,1.009765625,-0.052734375,0.0,-0.052734375,0.0,0.0,0.0
664297827,530894,0,1.0,-0.07421875,-0.001953125,-0.076171875,0.0,0.0,0.0
664299077,530895,0,1.009765625,-0.1015625,-0.01953125,-0.12109375,0.0,0.0,0.0
664300327,530896,0,0.998046875,-0.103515625,-0.015625,-0.119140625,0.0,0.0,0.0
664301578,530897,0,0.994140625,-0.109375,-0.0078125,-0.1171875,0.0,0.0,0.0
664302829,530898,0,1.001953125,-0.10546875,-0.01953125,-0.125,0.0,0.0,0.0
664304080,530899,0,1.001953125,-0.09765625,-0.013671875,-0.111328125,0.0,0.0,0.0
664305332,530900,0,0.998046875,-0.08984375,-0.009765625,-0.099609375,0.0,0.0,0.0
664306582,530901,0,1.001953125,-0.0703125,0.00390625,-0.06640625,0.0,0.0,0.0
664307834,530902,0,1.01171875,-0.046875,-0.001953125,-0.048828125,0.0,0.0,0.0
664309085,530903,0,1.0078125,-0.0390625,0.0078125,-0.03125,0.0,0.0,0.0
664310335,530904,0,1.009765625,-0.013671875,0.01953125,0.005859375,0.0,0.0,0.0
664311586,530905,0,1.005859375,-0.005859375,0.021484375,0.015625,0.0,0.0,0.0
664312838,530906,0,0.998046875,0.009765625,0.0234375,0.033203125,0.0,0.0,0.0
664314088,530907,0,1.00390625,0.01953125,0.025390625,0.044921875,0.0,0.0,0.0
664315338,530908,0,1.0078125,0.015625,0.033203125,0.048828125,0.0,0.0,0.0
664316589,530909,0,1.0078125,0.021484375,0.029296875,0.05078125,0.0,0.0,0.0
664317839,530910,0,1.009765625,0.01171875,0.02734375,0.0390625,0.0,0.0,0.0
664319091,530911,0,1.001953125,0.0,0.0234375,0.0234375,0.0,0.0,0.0
664320341,530912,0,0.998046875,-0.0078125,0.01953125,0.01171875,0.0,0.0,0.0
664321592,530913,0,1.0,-0.017578125,0.013671875,-0.00390625,0.0,0.0,0.0
664322844,530914,0,1.0078125,-0.0390625,0.0078125,-0.03125,0.0,0.0,0.0
664324094,530915,0,1.00390625,-0.0390625,0.005859375,-0.033203125,0.0,0.0,0.0
664325344,530916,0,1.0078125,-0.060546875,0.005859375,-0.0546875,0.0,0.0,0.0
664326595,530917,0,1.001953125,-0.068359375,0.0,-0.068359375,0.0,0.0,0.0
664327846,530918,0,0.98828125,-0.06640625,0.001953125,-0.064453125,0.0,0.0,0.0
664329096,530919,0,1.00390625,-0.078125,0.0,-0.078125,0.0,0.0,0.0
664330346,530920,0,0.990234375,-0.072265625,-0.005859375,-0.078125,0.0,0.0,0.0
664331597,530921,0,1.009765625,-0.068359375,0.01171875,-0.056640625,0.0,0.0,0.0
664332847,530922,0,1.01171875,-0.068359375,0.0,-0.068359375,0.0,0.0,0.0
664334097,530923,0,1.005859375,-0.0546875,-0.00390625,-0.05859375,0.0,0.0,0.0
664335349,530924,0,1.00390625,-0.05078125,0.005859375,-0.044921875,0.0,0.0,0.0
664336599,530925,0,1.005859375,-0.033203125,0.001953125,-0.03125,0.0,0.0,0.0
664337850,530926,0,0.99609375,-0.02734375,0.009765625,-0.017578125,0.0,0.0,0.0
664339101,530927,0,1.005859375,-0.0234375,0.015625,-0.0078125,0.0,0.0,0.0
664340351,530928,0,1.0078125,-0.013671875,0.017578125,0.00390625,0.0,0.0,0.0
664341602,530929,0,1.00390625,-0.015625,0.005859375,-0.009765625,0.0,0.0,0.0
664342853,530930,0,1.001953125,-0.0078125,0.021484375,0.013671875,0.0,0.0,0.0
664344103,530931,0,1.009765625,-0.009765625,0.015625,0.005859375,0.0,0.0,0.0
664345355,530932,0,1.001953125,-0.0078125,0.015625,0.0078125,0.0,0.0,0.0
664346606,530933,0,1.005859375,-0.01171875,0.01171875,0.0,0.0,0.0,0.0
664347856,530934,0,1.00390625,-0.021484375,0.01953125,-0.001953125,0.0,0.0,0.0
664349108,530935,0,1.009765625,-0.0234375,0.01171875,-0.01171875,0.0,0.0,0.0
664350359,530936,0,1.001953125,-0.029296875,0.015625,-0.013671875,0.0,0.0,0.0
664351610,530937,0,1.0,-0.03125,0.01171875,-0.01953125,0.0,0.0,0.0
664352860,530938,0,1.001953125,-0.033203125,0.015625,-0.017578125,0.0,0.0,0.0
664354110,530939,0,1.00390625,-0.03515625,0.009765625,-0.025390625,0.0,0.0,0.0
664355362,530940,0,1.00390625,-0.03125,0.0078125,-0.0234375,0.0,0.0,0.0
664356614,530941,0,0.998046875,-0.041015625,0.005859375,-0.03515625,0.0,0.0,0.0
664357865,530942,0,1.005859375,-0.044921875,0.01171875,-0.033203125,0.0,0.0,0.0
664359115,530943,0,1.00390625,-0.033203125,0.00390625,-0.029296875,0.0,0.0,0.0
664360366,530944,0,1.005859375,-0.029296875,0.00390625,-0.025390625,0.0,0.0,0.0
664361616,530945,0,1.001953125,-0.02734375,0.005859375,-0.021484375,0.0,0.0,0.0
664362867,530946,0,1.005859375,-0.029296875,0.013671875,-0.015625,0.0,0.0,0.0
664364118,530947,0,1.00390625,-0.025390625,0.01171875,-0.013671875,0.0,0.0,0.0
664365368,530948,0,1.00390625,-0.0234375,0.01953125,-0.00390625,0.0,0.0,0.0
664366619,530949,0,1.00390625,-0.017578125,0.017578125,0.0,0.0,0.0,0.0
664367871,530950,0,1.00390625,-0.021484375,0.017578125,-0.00390625,0.0,0.0,0.0
664369121,530951,0,1.001953125,-0.017578125,0.021484375,0.00390625,0.0,0.0,0.0
664370371,530952,0,1.00390625,-0.015625,0.009765625,-0.005859375,0.0,0.0,0.0
664371623,530953,0,1.005859375,-0.01953125,0.01171875,-0.0078125,0.0,0.0,0.0
664372873,530954,0,1.00390625,-0.01953125,0.009765625,-0.009765625,0.0,0.0,0.0
664374124,530955,0,0.998046875,-0.01953125,0.009765625,-0.009765625,0.0,0.0,0.0
664375376,530956,0,1.0,-0.021484375,0.017578125,-0.00390625,0.0,0.0,0.0
664376626,530957,0,1.00390625,-0.021484375,0.0078125,-0.013671875,0.0,0.0,0.0
664377877,530958,0,1.005859375,-0.033203125,0.009765625,-0.0234375,0.0,0.0,0.0
664379127,530959,0,1.009765625,-0.03125,0.013671875,-0.017578125,0.0,0.0,0.0
664380377,530960,0,1.005859375,-0.02734375,0.017578125,-0.009765625,0.0,0.0,0.0
664381629,530961,0,1.005859375,-0.0390625,0.0,-0.0390625,0.0,0.0,0.0
664382879,530962,0,0.998046875,-0.0390625,0.01171875,-0.02734375,0.0,0.0,0.0
664384130,530963,0,0.99609375,-0.033203125,0.0078125,-0.025390625,0.0,0.0,0.0
664385381,530964,0,1.001953125,-0.037109375,0.01171875,-0.025390625,0.0,0.0,0.0
664386631,530965,0,1.00390625,-0.0390625,0.0078125,-0.03125,0.0,0.0,0.0
664387883,530966,0,1.001953125,-0.044921875,0.005859375,-0.0390625,0.0,0.0,0.0
664389134,530967,0,1.0,-0.0390625,0.009765625,-0.029296875,0.0,0.0,0.0
664390384,530968,0,1.00390625,-0.037109375,0.005859375,-0.03125,0.0,0.0,0.0
664391635,530969,0,1.0,-0.037109375,0.009765625,-0.02734375,0.0,0.0,0.0
664392887,530970,0,1.0078125,-0.037109375,0.013671875,-0.0234375,0.0,0.0,0.0
664394137,530971,0,1.0078125,-0.037109375,0.01171875,-0.025390625,0.0,0.0,0.0
664395388,530972,0,1.005859375,-0.03125,0.009765625,-0.021484375,0.0,0.0,0.0
664396639,530973,0,1.0078125,-0.0390625,0.0078125,-0.03125,0.0,0.0,0.0
664397889,530974,0,1.001953125,-0.03515625,0.009765625,-0.025390625,0.0,0.0,0.0
664399140,530975,0,0.99609375,-0.0390625,0.017578125,-0.021484375,0.0,0.0,0.0
664400392,530976,0,1.001953125,-0.037109375,0.009765625,-0.02734375,0.0,0.0,0.0
664401642,530977,0,1.005859375,-0.037109375,0.01171875,-0.025390625,0.0,0.0,0.0
664402894,530978,0,1.01171875,-0.037109375,0.01171875,-0.025390625,0.0,0.0,0.0
664404145,530979,0,1.0,-0.03125,0.009765625,-0.021484375,0.0,0.0,0.0
664405396,530980,0,1.0,-0.03515625,0.015625,-0.01953125,0.0,0.0,0.0
664406647,530981,0,1.0078125,-0.041015625,0.013671875,-0.02734375,0.0,0.0,0.0
664407899,530982,0,1.001953125,-0.041015625,0.017578125,-0.0234375,0.0,0.0,0.0
664409150,530983,0,1.001953125,-0.04296875,0.00390625,-0.0390625,0.0,0.0,0.0
664410400,530984,0,1.001953125,-0.03515625,0.001953125,-0.033203125,0.0,0.0,0.0
664411652,530985,0,1.01171875,-0.03515625,0.009765625,-0.025390625,0.0,0.0,0.0
664412902,530986,0,1.00390625,-0.03515625,0.015625,-0.01953125,0.0,0.0,0.0
664414152,530987,0,0.998046875,-0.033203125,0.01171875,-0.021484375,0.0,0.0,0.0
664415402,530988,0,1.009765625,-0.02734375,0.009765625,-0.017578125,0.0,0.0,0.0
664416653,530989,0,1.001953125,-0.03515625,0.015625,-0.01953125,0.0,0.0,0.0
664417904,530990,0,1.001953125,-0.02734375,0.013671875,-0.013671875,0.0,0.0,0.0
664419154,530991,0,1.00390625,-0.029296875,0.01953125,-0.009765625,0.0,0.0,0.0
664420406,530992,0,1.005859375,-0.029296875,0.013671875,-0.015625,0.0,0.0,0.0
664421657,530993,0,1.00390625,-0.02734375,0.013671875,-0.013671875,0.0,0.0,0.0
664422907,530994,0,1.001953125,-0.02734375,0.015625,-0.01171875,0.0,0.0,0.0
664424158,530995,0,1.0,-0.02734375,0.009765625,-0.017578125,0.0,0.0,0.0
664425408,530996,0,1.005859375,-0.02734375,0.015625,-0.01171875,0.0,0.0,0.0
664426659,530997,0,1.0,-0.02734375,0.013671875,-0.013671875,0.0,0.0,0.0
664427910,530998,0,1.001953125,-0.0234375,0.0078125,-0.015625,0.0,0.0,0.0
664429160,530999,0,1.009765625,-0.02734375,0.015625,-0.01171875,0.0,0.0,0.0
664430410,531000,0,1.013671875,-0.02734375,0.009765625,-0.017578125,0.0,0.0,0.0
664431662,531001,0,1.009765625,-0.03125,0.015625,-0.015625,0.0,0.0,0.0
664432912,531002,0,1.001953125,-0.0234375,0.021484375,-0.001953125,0.0,0.0,0.0
664434163,531003,0,1.001953125,-0.025390625,0.013671875,-0.01171875,0.0,0.0,0.0
664435413,531004,0,1.00390625,-0.02734375,0.015625,-0.01171875,0.0,0.0,0.0
664436664,531005,0,0.9921875,-0.025390625,0.017578125,-0.0078125,0.0,0.0,0.0
664437915,531006,0,1.00390625,-0.029296875,0.009765625,-0.01953125,0.0,0.0,0.0
664439167,531007,0,0.99609375,-0.021484375,0.0,-0.021484375,0.0,0.0,0.0
664440417,531008,0,1.00390625,-0.029296875,0.001953125,-0.02734375,0.0,0.0,0.0
664441668,531009,0,1.017578125,-0.025390625,0.001953125,-0.0234375,0.0,0.0,0.0
664442920,531010,0,1.0078125,-0.02734375,0.009765625,-0.017578125,0.0,0.0,0.0
664444171,531011,0,1.001953125,-0.02734375,0.0078125,-0.01953125,0.0,0.0,0.0
664445422,531012,0,1.00390625,-0.03125,0.013671875,-0.017578125,0.0,0.0,0.0
664446674,531013,0,0.998046875,-0.029296875,0.001953125,-0.02734375,0.0,0.0,0.0
664447924,531014,0,0.998046875,-0.03125,0.013671875,-0.017578125,0.0,0.0,0.0
664449175,531015,0,0.998046875,-0.033203125,0.0078125,-0.025390625,0.0,0.0,0.0
664450426,531016,0,1.00390625,-0.03515625,0.005859375,-0.029296875,0.0,0.0,0.0
664451677,531017,0,0.998046875,-0.033203125,0.009765625,-0.0234375,0.0,0.0,0.0
664452928,531018,0,1.005859375,-0.033203125,0.005859375,-0.02734375,0.0,0.0,0.0
664454179,531019,0,1.0,-0.033203125,0.00390625,-0.029296875,0.0,0.0,0.0
664455431,531020,0,1.0078125,-0.037109375,0.01171875,-0.025390625,0.0,0.0,0.0
664456681,531021,0,1.0078125,-0.0390625,0.009765625,-0.029296875,0.0,0.0,0.0
664457932,531022,0,1.005859375,-0.041015625,0.0078125,-0.033203125,0.0,0.0,0.0
664459182,531023,0,1.005859375,-0.03515625,0.01171875,-0.0234375,0.0,0.0,0.0
664460432,531024,0,1.0078125,-0.0390625,0.0,-0.0390625,0.0,0.0,0.0
664461684,531025,0,1.005859375,-0.03515625,0.0078125,-0.02734375,0.0,0.0,0.0
664462934,531026,0,1.01171875,-0.037109375,0.01171875,-0.025390625,0.0,0.0,0.0
664464185,531027,0,1.005859375,-0.03125,0.001953125,-0.029296875,0.0,0.0,0.0
664465436,531028,0,1.001953125,-0.037109375,0.0078125,-0.029296875,0.0,0.0,0.0
664466687,531029,0,1.0,-0.037109375,0.017578125,-0.01953125,0.0,0.0,0.0
664467937,531030,0,1.015625,-0.03515625,0.013671875,-0.021484375,0.0,0.0,0.0
664469187,531031,0,1.009765625,-0.037109375,0.015625,-0.021484375,0.0,0.0,0.0
664470439,531032,0,1.0,-0.037109375,0.01171875,-0.025390625,0.0,0.0,0.0
664471690,531033,0,1.005859375,-0.03515625,0.01171875,-0.0234375,0.0,0.0,0.0
664472940,531034,0,1.005859375,-0.033203125,0.009765625,-0.0234375,0.0,0.0,0.0
664474192,531035,0,1.00390625,-0.037109375,0.005859375,-0.03125,0.0,0.0,0.0
664475443,531036,0,1.005859375,-0.03515625,0.009765625,-0.025390625,0.0,0.0,0.0
664476694,531037,0,1.00390625,-0.03515625,0.0078125,-0.02734375,0.0,0.0,0.0
664477944,531038,0,1.0,-0.03515625,0.005859375,-0.029296875,0.0,0.0,0.0
664479194,531039,0,1.00390625,-0.033203125,0.013671875,-0.01953125,0.0,0.0,0.0
664480445,531040,0,1.00390625,-0.033203125,0.0078125,-0.025390625,0.0,0.0,0.0
664481697,531041,0,1.00390625,-0.03125,0.009765625,-0.021484375,0.0,0.0,0.0
664482947,531042,0,1.001953125,-0.03125,0.01171875,-0.01953125,0.0,0.0,0.0
664484199,531043,0,1.0078125,-0.03515625,0.015625,-0.01953125,0.0,0.0,0.0
664485449,531044,0,1.0078125,-0.03125,0.005859375,-0.025390625,0.0,0.0,0.0
664486701,531045,0,1.001953125,-0.033203125,0.01171875,-0.021484375,0.0,0.0,0.0
664487951,531046,0,1.0078125,-0.03125,0.015625,-0.015625,0.0,0.0,0.0
664489202,531047,0,1.005859375,-0.0234375,0.009765625,-0.013671875,0.0,0.0,0.0
664490454,531048,0,1.001953125,-0.033203125,0.005859375,-0.02734375,0.0,0.0,0.0
664491704,531049,0,1.0,-0.025390625,0.025390625,0.0,0.0,0.0,0.0
664492955,531050,0,1.001953125,-0.03125,0.015625,-0.015625,0.0,0.0,0.0
664494206,531051,0,1.0078125,-0.02734375,0.017578125,-0.009765625,0.0,0.0,0.0
664495457,531052,0,1.001953125,-0.0234375,0.013671875,-0.009765625,0.0,0.0,0.0
664496708,531053,0,1.00390625,-0.025390625,0.015625,-0.009765625,0.0,0.0,0.0
664497959,531054,0,1.005859375,-0.0234375,0.015625,-0.0078125,0.0,0.0,0.0
664499211,531055,0,1.001953125,-0.025390625,0.01953125,-0.005859375,0.0,0.0,0.0
664500463,531056,0,1.0078125,-0.029296875,0.015625,-0.013671875,0.0,0.0,0.0
664501713,531057,0,1.00390625,-0.0234375,0.015625,-0.0078125,0.0,0.0,0.0
664502965,531058,0,1.001953125,-0.02734375,0.01953125,-0.0078125,0.0,0.0,0.0
664504215,531059,0,1.0078125,-0.02734375,0.01171875,-0.015625,0.0,0.0,0.0
664505466,531060,0,1.001953125,-0.02734375,0.009765625,-0.017578125,0.0,0.0,0.0
664506716,531061,0,1.005859375,-0.02734375,0.009765625,-0.017578125,0.0,0.0,0.0
664507966,531062,0,1.001953125,-0.02734375,0.015625,-0.01171875,0.0,0.0,0.0
664509216,531063,0,1.005859375,-0.02734375,0.01171875,-0.015625,0.0,0.0,0.0
664510468,531064,0,1.001953125,-0.02734375,0.017578125,-0.009765625,0.0,0.0,0.0
664511719,531065,0,1.0078125,-0.03515625,0.015625,-0.01953125,0.0,0.0,0.0
664512969,531066,0,1.00390625,-0.03515625,0.01171875,-0.0234375,0.0,0.0,0.0
664514221,531067,0,1.00390625,-0.033203125,0.009765625,-0.0234375,0.0,0.0,0.0
664515471,531068,0,1.001953125,-0.03515625,0.015625,-0.01953125,0.0,0.0,0.0
664516723,531069,0,0.998046875,-0.037109375,0.01171875,-0.025390625,0.0,0.0,0.0
664517973,531070,0,1.00390625,-0.0390625,0.0078125,-0.03125,0.0,0.0,0.0
664519225,531071,0,1.005859375,-0.0390625,0.005859375,-0.033203125,0.0,0.0,0.0
664520476,531072,0,0.990234375,-0.033203125,0.009765625,-0.0234375,0.0,0.0,0.0
664521727,531073,0,0.99609375,-0.033203125,0.005859375,-0.02734375,0.0,0.0,0.0
664522977,531074,0,1.005859375,-0.037109375,0.009765625,-0.02734375,0.0,0.0,0.0
664524228,531075,0,1.00390625,-0.037109375,0.01171875,-0.025390625,0.0,0.0,0.0
664525479,531076,0,0.998046875,-0.03515625,0.009765625,-0.025390625,0.0,0.0,0.0
664526730,531077,0,1.001953125,-0.037109375,0.009765625,-0.02734375,0.0,0.0,0.0
664527981,531078,0,1.0078125,-0.03515625,0.005859375,-0.029296875,0.0,0.0,0.0
664529233,531079,0,1.005859375,-0.03515625,0.009765625,-0.025390625,0.0,0.0,0.0
664530484,531080,0,1.001953125,-0.037109375,0.0078125,-0.029296875,0.0,0.0,0.0
664531734,531081,0,0.998046875,-0.0390625,0.01171875,-0.02734375,0.0,0.0,0.0
664532984,531082,0,1.001953125,-0.037109375,0.0078125,-0.029296875,0.0,0.0,0.0
664534235,531083,0,1.0,-0.037109375,0.009765625,-0.02734375,0.0,0.0,0.0
664535486,531084,0,1.0,-0.037109375,0.005859375,-0.03125,0.0,0.0,0.0
664536737,531085,0,1.005859375,-0.033203125,0.0078125,-0.025390625,0.0,0.0,0.0
664537987,531086,0,1.00390625,-0.037109375,0.005859375,-0.03125,0.0,0.0,0.0
664539238,531087,0,1.00390625,-0.037109375,0.015625,-0.021484375,0.0,0.0,0.0
664540489,531088,0,0.99609375,-0.037109375,0.0078125,-0.029296875,0.0,0.0,0.0
664541740,531089,0,1.00390625,-0.037109375,0.009765625,-0.02734375,0.0,0.0,0.0
664542992,531090,0,1.009765625,-0.03515625,0.013671875,-0.021484375,0.0,0.0,0.0
664544242,531091,0,1.001953125,-0.0390625,-0.00390625,-0.04296875,0.0,0.0,0.0
664545493,531092,0,1.009765625,-0.037109375,0.001953125,-0.03515625,0.0,0.0,0.0
664546744,531093,0,1.00390625,-0.03515625,0.01171875,-0.0234375,0.0,0.0,0.0
664547994,531094,0,0.998046875,-0.033203125,0.005859375,-0.02734375,0.0,0.0,0.0
664549245,531095,0,1.00390625,-0.03125,0.0078125,-0.0234375,0.0,0.0,0.0
664550497,531096,0,1.001953125,-0.02734375,0.009765625,-0.017578125,0.0,0.0,0.0
664551749,531097,0,1.001953125,-0.02734375,0.013671875,-0.013671875,0.0,0.0,0.0
664552999,531098,0,1.00390625,-0.029296875,0.013671875,-0.015625,0.0,0.0,0.0
664554250,531099,0,1.0078125,-0.03125,0.005859375,-0.025390625,0.0,0.0,0.0
664555500,531100,0,1.001953125,-0.029296875,0.009765625,-0.01953125,0.0,0.0,0.0
664556752,531101,0,1.0078125,-0.033203125,0.013671875,-0.01953125,0.0,0.0,0.0
664558003,531102,0,1.001953125,-0.025390625,-0.005859375,-0.03125,0.0,0.0,0.0
664559254,531103,0,0.998046875,-0.025390625,0.015625,-0.009765625,0.0,0.0,0.0
664560504,531104,0,1.00390625,-0.029296875,0.009765625,-0.01953125,0.0,0.0,0.0
664561756,531105,0,1.001953125,-0.02734375,0.013671875,-0.013671875,0.0,0.0,0.0
664563006,531106,0,1.01171875,-0.025390625,0.015625,-0.009765625,0.0,0.0,0.0
664564257,531107,0,1.0,-0.03125,0.017578125,-0.013671875,0.0,0.0,0.0
664565508,531108,0,1.001953125,-0.021484375,0.017578125,-0.00390625,0.0,0.0,0.0
664566759,531109,0,1.0,-0.029296875,0.017578125,-0.01171875,0.0,0.0,0.0
664568009,531110,0,1.01171875,-0.025390625,0.01171875,-0.013671875,0.0,0.0,0.0
664569259,531111,0,0.998046875,-0.03125,0.013671875,-0.017578125,0.0,0.0,0.0
664570510,531112,0,1.00390625,-0.02734375,0.015625,-0.01171875,0.0,0.0,0.0
664571762,531113,0,1.01171875,-0.029296875,0.01171875,-0.017578125,0.0,0.0,0.0
664573013,531114,0,0.99609375,-0.03125,0.005859375,-0.025390625,0.0,0.0,0.0
664574271,531115,0,0.998046875,-0.029296875,0.005859375,-0.0234375,0.0,0.0,0.0
664575522,531116,0,1.009765625,-0.029296875,0.01171875,-0.017578125,0.0,0.0,0.0
664576773,531117,0,1.0078125,-0.03125,0.009765625,-0.021484375,0.0,0.0,0.0
664578025,531118,0,1.001953125,-0.029296875,0.013671875,-0.015625,0.0,0.0,0.0
664579277,531119,0,1.0,-0.033203125,0.0078125,-0.025390625,0.0,0.0,0.0
664580528,531120,0,1.005859375,-0.037109375,0.01171875,-0.025390625,0.0,0.0,0.0
664581779,531121,0,1.005859375,-0.033203125,0.013671875,-0.01953125,0.0,0.0,0.0
664583031,531122,0,1.005859375,-0.03515625,0.013671875,-0.021484375,0.0,0.0,0.0
664584283,531123,0,1.001953125,-0.03125,0.015625,-0.015625,0.0,0.0,0.0
664585535,531124,0,1.001953125,-0.03515625,0.009765625,-0.025390625,0.0,0.0,0.0
664586786,531125,0,0.998046875,-0.033203125,0.013671875,-0.01953125,0.0,0.0,0.0
664588036,531126,0,1.001953125,-0.03515625,0.015625,-0.01953125,0.0,0.0,0.0
664589287,531127,0,1.00390625,-0.0390625,0.01171875,-0.02734375,0.0,0.0,0.0
664590537,531128,0,1.005859375,-0.0390625,0.015625,-0.0234375,0.0,0.0,0.0
664591787,531129,0,1.0,-0.037109375,-0.001953125,-0.0390625,0.0,0.0,0.0
664593038,531130,0,1.009765625,-0.029296875,0.00390625,-0.025390625,0.0,0.0,0.0
664594289,531131,0,1.009765625,-0.0390625,0.0078125,-0.03125,0.0,0.0,0.0
664595539,531132,0,1.001953125,-0.0390625,0.009765625,-0.029296875,0.0,0.0,0.0
664596790,531133,0,1.005859375,-0.0390625,0.009765625,-0.029296875,0.0,0.0,0.0
664598042,531134,0,1.015625,-0.033203125,0.01171875,-0.021484375,0.0,0.0,0.0
664599292,531135,0,0.99609375,-0.0390625,0.009765625,-0.029296875,0.0,0.0,0.0
664600543,531136,0,0.99609375,-0.0390625,0.00390625,-0.03515625,0.0,0.0,0.0
664601794,531137,0,1.0,-0.0390625,0.017578125,-0.021484375,0.0,0.0,0.0
664603044,531138,0,1.0,-0.037109375,0.0078125,-0.029296875,0.0,0.0,0.0
664604294,531139,0,1.00390625,-0.03515625,0.00390625,-0.03125,0.0,0.0,0.0
664605544,531140,0,1.0,-0.03125,0.013671875,-0.017578125,0.0,0.0,0.0
664606796,531141,0,0.998046875,-0.03515625,0.009765625,-0.025390625,0.0,0.0,0.0
664608047,531142,0,1.00390625,-0.03515625,0.01171875,-0.0234375,0.0,0.0,0.0
664609297,531143,0,1.001953125,-0.033203125,0.00390625,-0.029296875,0.0,0.0,0.0
664610548,531144,0,1.00390625,-0.03515625,0.0078125,-0.02734375,0.0,0.0,0.0
664611800,531145,0,1.00390625,-0.037109375,0.009765625,-0.02734375,0.0,0.0,0.0
664613050,531146,0,1.001953125,-0.03125,0.013671875,-0.017578125,0.0,0.0,0.0
664614300,531147,0,1.00390625,-0.033203125,0.009765625,-0.0234375,0.0,0.0,0.0
664615550,531148,0,1.00390625,-0.033203125,0.00390625,-0.029296875,0.0,0.0,0.0
664616801,531149,0,1.00390625,-0.03515625,0.015625,-0.01953125,0.0,0.0,0.0
664618052,531150,0,1.005859375,-0.033203125,0.013671875,-0.01953125,0.0,0.0,0.0
664619302,531151,0,1.009765625,-0.033203125,0.0078125,-0.025390625,0.0,0.0,0.0
664620553,531152,0,1.001953125,-0.025390625,0.005859375,-0.01953125,0.0,0.0,0.0
664621804,531153,0,1.005859375,-0.02734375,0.015625,-0.01171875,0.0,0.0,0.0
664623054,531154,0,1.005859375,-0.029296875,0.01953125,-0.009765625,0.0,0.0,0.0
664624305,531155,0,1.005859375,-0.029296875,0.015625,-0.013671875,0.0,0.0,0.0
664625556,531156,0,0.994140625,-0.021484375,0.01171875,-0.009765625,0.0,0.0,0.0
664626807,531157,0,1.001953125,-0.03125,0.013671875,-0.017578125,0.0,0.0,0.0
664628058,531158,0,1.0,-0.025390625,0.005859375,-0.01953125,0.0,0.0,0.0
664629310,531159,0,0.998046875,-0.02734375,0.01171875,-0.015625,0.0,0.0,0.0
664630560,531160,0,1.0078125,-0.029296875,0.009765625,-0.01953125,0.0,0.0,0.0
664631810,531161,0,1.005859375,-0.029296875,0.017578125,-0.01171875,0.0,0.0,0.0
664633060,531162,0,1.005859375,-0.029296875,0.013671875,-0.015625,0.0,0.0,0.0
664634311,531163,0,1.0078125,-0.02734375,0.01953125,-0.0078125,0.0,0.0,0.0
664635561,531164,0,1.005859375,-0.029296875,0.013671875,-0.015625,0.0,0.0,0.0
664636813,531165,0,1.0078125,-0.029296875,0.01171875,-0.017578125,0.0,0.0,0.0
664638063,531166,0,1.001953125,-0.02734375,0.01171875,-0.015625,0.0,0.0,0.0
664639313,531167,0,1.00390625,-0.02734375,0.015625,-0.01171875,0.0,0.0,0.0
664640565,531168,0,1.00390625,-0.03125,0.013671875,-0.017578125,0.0,0.0,0.0
664641816,531169,0,1.005859375,-0.033203125,0.01171875,-0.021484375,0.0,0.0,0.0
664643066,531170,0,1.00390625,-0.029296875,0.001953125,-0.02734375,0.0,0.0,0.0
664644316,531171,0,1.005859375,-0.033203125,0.015625,-0.017578125,0.0,0.0,0.0
664645567,531172,0,1.015625,-0.03125,0.017578125,-0.013671875,0.0,0.0,0.0
664646817,531173,0,0.998046875,-0.037109375,0.013671875,-0.0234375,0.0,0.0,0.0
664648069,531174,0,1.0078125,-0.025390625,0.0078125,-0.017578125,0.0,0.0,0.0
664649319,531175,0,1.01171875,-0.033203125,0.013671875,-0.01953125,0.0,0.0,0.0
664650570,531176,0,0.998046875,-0.033203125,0.015625,-0.017578125,0.0,0.0,0.0
664651822,531177,0,1.00390625,-0.03515625,0.015625,-0.01953125,0.0,0.0,0.0
664653072,531178,0,1.001953125,-0.03515625,0.013671875,-0.021484375,0.0,0.0,0.0
664654322,531179,0,1.009765625,-0.03515625,0.017578125,-0.017578125,0.0,0.0,0.0
664655572,531180,0,1.001953125,-0.037109375,0.009765625,-0.02734375,0.0,0.0,0.0
664656823,531181,0,1.0,-0.03515625,0.005859375,-0.029296875,0.0,0.0,0.0
664658075,531182,0,1.005859375,-0.0390625,0.009765625,-0.029296875,0.0,0.0,0.0
664659326,531183,0,1.009765625,-0.037109375,0.01171875,-0.025390625,0.0,0.0,0.0
664660576,531184,0,1.001953125,-0.033203125,0.009765625,-0.0234375,0.0,0.0,0.0
664661827,531185,0,1.00390625,-0.037109375,0.009765625,-0.02734375,0.0,0.0,0.0
664663077,531186,0,1.005859375,-0.0390625,0.009765625,-0.029296875,0.0,0.0,0.0
664664327,531187,0,1.005859375,-0.041015625,0.005859375,-0.03515625,0.0,0.0,0.0
664665578,531188,0,1.001953125,-0.03515625,0.009765625,-0.025390625,0.0,0.0,0.0
664666829,531189,0,0.998046875,-0.037109375,0.0078125,-0.029296875,0.0,0.0,0.0
664668080,531190,0,0.998046875,-0.04296875,0.009765625,-0.033203125,0.0,0.0,0.0
664669332,531191,0,1.005859375,-0.033203125,0.0078125,-0.025390625,0.0,0.0,0.0
664670582,531192,0,1.0,-0.037109375,0.0078125,-0.029296875,0.0,0.0,0.0
664671834,531193,0,1.00390625,-0.033203125,0.01171875,-0.021484375,0.0,0.0,0.0
664673085,531194,0,1.005859375,-0.0390625,0.013671875,-0.025390625,0.0,0.0,0.0
664674335,531195,0,1.01171875,-0.041015625,0.0078125,-0.033203125,0.0,0.0,0.0
664675586,531196,0,1.005859375,-0.037109375,0.0078125,-0.029296875,0.0,0.0,0.0
664676838,531197,0,0.998046875,-0.03515625,0.0,-0.03515625,0.0,0.0,0.0
664678088,531198,0,1.01171875,-0.029296875,0.015625,-0.013671875,0.0,0.0,0.0
664679338,531199,0,1.001953125,-0.02734375,0.017578125,-0.009765625,0.0,0.0,0.0
664680589,531200,0,1.0,-0.033203125,0.005859375,-0.02734375,0.0,0.0,0.0
664681839,531201,0,1.00390625,-0.03515625,0.0078125,-0.02734375,0.0,0.0,0.0
664683091,531202,0,1.0,-0.029296875,0.009765625,-0.01953125,0.0,0.0,0.0
664684341,531203,0,1.001953125,-0.03125,0.01171875,-0.01953125,0.0,0.0,0.0
664685592,531204,0,1.001953125,-0.03125,0.013671875,-0.017578125,0.0,0.0,0.0
664686844,531205,0,1.0078125,-0.02734375,0.015625,-0.01171875,0.0,0.0,0.0
664688094,531206,0,1.0,-0.029296875,0.013671875,-0.015625,0.0,0.0,0.0
664689344,531207,0,0.998046875,-0.029296875,0.015625,-0.013671875,0.0,0.0,0.0
664690595,531208,0,1.00390625,-0.029296875,0.0078125,-0.021484375,0.0,0.0,0.0
664691846,531209,0,1.00390625,-0.03125,0.0078125,-0.0234375,0.0,0.0,0.0
664693096,531210,0,1.00390625,-0.03125,0.017578125,-0.013671875,0.0,0.0,0.0
664694346,531211,0,1.005859375,-0.0234375,0.009765625,-0.013671875,0.0,0.0,0.0
664695597,531212,0,1.00390625,-0.03125,0.01171875,-0.01953125,0.0,0.0,0.0
664696847,531213,0,1.001953125,-0.029296875,0.01171875,-0.017578125,0.0,0.0,0.0
664698097,531214,0,1.001953125,-0.029296875,0.017578125,-0.01171875,0.0,0.0,0.0
664699349,531215,0,1.00390625,-0.03125,0.013671875,-0.017578125,0.0,0.0,0.0
664700599,531216,0,1.005859375,-0.03125,0.015625,-0.015625,0.0,0.0,0.0
664701850,531217,0,0.998046875,-0.033203125,0.015625,-0.017578125,0.0,0.0,0.0
664703101,531218,0,1.015625,-0.025390625,0.01171875,-0.013671875,0.0,0.0,0.0
664704351,531219,0,1.009765625,-0.02734375,0.015625,-0.01171875,0.0,0.0,0.0
664705602,531220,0,1.009765625,-0.033203125,0.005859375,-0.02734375,0.0,0.0,0.0
664706853,531221,0,1.00390625,-0.03125,0.009765625,-0.021484375,0.0,0.0,0.0
664708103,531222,0,1.0078125,-0.03125,0.017578125,-0.013671875,0.0,0.0,0.0
664709355,531223,0,1.0078125,-0.03125,0.01171875,-0.01953125,0.0,0.0,0.0
664710606,531224,0,1.0,-0.025390625,0.005859375,-0.01953125,0.0,0.0,0.0
664711856,531225,0,1.00390625,-0.029296875,0.013671875,-0.015625,0.0,0.0,0.0
664713108,531226,0,1.0078125,-0.02734375,0.009765625,-0.017578125,0.0,0.0,0.0
664714359,531227,0,1.005859375,-0.03125,0.005859375,-0.025390625,0.0,0.0,0.0
664715610,531228,0,1.0,-0.033203125,0.009765625,-0.0234375,0.0,0.0,0.0
664716860,531229,0,1.001953125,-0.02734375,0.009765625,-0.017578125,0.0,0.0,0.0
664718110,531230,0,0.998046875,-0.03125,0.0078125,-0.0234375,0.0,0.0,0.0
664719362,531231,0,1.005859375,-0.03515625,0.009765625,-0.025390625,0.0,0.0,0.0
664720614,531232,0,1.001953125,-0.03125,0.009765625,-0.021484375,0.0,0.0,0.0
664721865,531233,0,1.005859375,-0.03515625,0.005859375,-0.029296875,0.0,0.0,0.0
664723115,531234,0,1.0078125,-0.037109375,0.005859375,-0.03125,0.0,0.0,0.0
664724366,531235,0,1.001953125,-0.041015625,0.00390625,-0.037109375,0.0,0.0,0.0
664725616,531236,0,1.001953125,-0.03125,0.013671875,-0.017578125,0.0,0.0,0.0
664726867,531237,0,0.99609375,-0.03515625,0.009765625,-0.025390625,0.0,0.0,0.0
664728118,531238,0,1.0,-0.03515625,0.0078125,-0.02734375,0.0,0.0,0.0
664729368,531239,0,1.0,-0.0390625,0.013671875,-0.025390625,0.0,0.0,0.0
664730619,531240,0,0.998046875,-0.037109375,0.01953125,-0.017578125,0.0,0.0,0.0
664731871,531241,0,1.0,-0.03515625,0.0078125,-0.02734375,0.0,0.0,0.0
664733121,531242,0,1.0,-0.041015625,0.015625,-0.025390625,0.0,0.0,0.0
664734371,531243,0,1.009765625,-0.044921875,-0.0078125,-0.052734375,0.0,0.0,0.0
664735623,531244,0,1.001953125,-0.03515625,0.009765625,-0.025390625,0.0,0.0,0.0
664736873,531245,0,1.00390625,-0.0390625,0.017578125,-0.021484375,0.0,0.0,0.0
664738124,531246,0,1.001953125,-0.03515625,0.009765625,-0.025390625,0.0,0.0,0.0
664739376,531247,0,1.005859375,-0.037109375,0.009765625,-0.02734375,0.0,0.0,0.0
664740626,531248,0,1.0,-0.037109375,0.0078125,-0.029296875,0.0,0.0,0.0
664741877,531249,0,1.001953125,-0.03515625,0.009765625,-0.025390625,0.0,0.0,0.0
664743127,531250,0,1.005859375,-0.03515625,0.0078125,-0.02734375,0.0,0.0,0.0
664744377,531251,0,1.00390625,-0.03515625,0.0,-0.03515625,0.0,0.0,0.0
664745629,531252,0,1.00390625,-0.03125,0.009765625,-0.021484375,0.0,0.0,0.0
664746879,531253,0,1.005859375,-0.033203125,0.009765625,-0.0234375,0.0,0.0,0.0
664748130,531254,0,1.005859375,-0.037109375,0.01171875,-0.025390625,0.0,0.0,0.0
664749381,531255,0,1.001953125,-0.03125,0.009765625,-0.021484375,0.0,0.0,0.0
664750631,531256,0,1.00390625,-0.033203125,0.01171875,-0.021484375,0.0,0.0,0.0
664751883,531257,0,1.0078125,-0.03125,0.01171875,-0.01953125,0.0,0.0,0.0
664753134,531258,0,1.001953125,-0.037109375,0.0078125,-0.029296875,0.0,0.0,0.0
664754384,531259,0,0.99609375,-0.03125,0.0078125,-0.0234375,0.0,0.0,0.0
664755635,531260,0,1.0078125,-0.033203125,0.01171875,-0.021484375,0.0,0.0,0.0
664756887,531261,0,1.017578125,-0.033203125,0.0078125,-0.025390625,0.0,0.0,0.0
664758137,531262,0,0.99609375,-0.033203125,0.013671875,-0.01953125,0.0,0.0,0.0
664759388,531263,0,0.998046875,-0.02734375,0.015625,-0.01171875,0.0,0.0,0.0
664760639,531264,0,1.009765625,-0.029296875,0.005859375,-0.0234375,0.0,0.0,1.599226537371583e-22
664763140,531266,0,1.00390625,-0.029296875,0.013671875,-0.015625,0.0,0.0,0.0
664764392,531267,0,1.005859375,-0.029296875,0.015625,-0.013671875,0.0,0.0,0.0
664765642,531268,0,1.00390625,-0.029296875,0.0078125,-0.021484375,0.0,0.0,0.0
664766894,531269,0,1.0078125,-0.029296875,0.009765625,-0.01953125,0.0,0.0,0.0
664768145,531270,0,1.001953125,-0.029296875,0.005859375,-0.0234375,0.0,0.0,0.0
664769396,531271,0,1.005859375,-0.029296875,0.0078125,-0.021484375,0.0,0.0,0.0
664770647,531272,0,1.005859375,-0.029296875,0.009765625,-0.01953125,0.0,0.0,0.0
664771899,531273,0,1.0078125,-0.03125,0.00390625,-0.02734375,0.0,0.0,0.0
664773150,531274,0,1.0078125,-0.029296875,0.005859375,-0.0234375,0.0,0.0,0.0
664774400,531275,0,1.00390625,-0.02734375,0.005859375,-0.021484375,0.0,0.0,0.0
664775652,531276,0,1.001953125,-0.03125,0.0078125,-0.0234375,0.0,0.0,0.0
664776902,531277,0,1.00390625,-0.029296875,0.005859375,-0.0234375,0.0,0.0,0.0
664778152,531278,0,1.00390625,-0.02734375,0.01171875,-0.015625,0.0,0.0,0.0
664779402,531279,0,1.009765625,-0.033203125,0.017578125,-0.015625,0.0,0.0,0.0
664780653,531280,0,1.0,-0.03125,0.013671875,-0.017578125,0.0,0.0,0.0
664781904,531281,0,1.009765625,-0.029296875,0.015625,-0.013671875,0.0,0.0,0.0
664783154,531282,0,1.0,-0.025390625,0.013671875,-0.01171875,0.0,0.0,0.0
664784406,531283,0,1.009765625,-0.03515625,0.01171875,-0.0234375,0.0,0.0,0.0
664785657,531284,0,1.0,-0.037109375,0.01953125,-0.017578125,0.0,0.0,0.0
664786907,531285,0,1.009765625,-0.033203125,0.0078125,-0.025390625,0.0,0.0,0.0
664788158,531286,0,1.0,-0.033203125,0.00390625,-0.029296875,0.0,0.0,0.0
664789408,531287,0,1.001953125,-0.037109375,0.015625,-0.021484375,0.0,0.0,0.0
664790659,531288,0,1.00390625,-0.037109375,0.013671875,-0.0234375,0.0,0.0,0.0
664791910,531289,0,1.001953125,-0.033203125,0.0078125,-0.025390625,0.0,0.0,0.0
664793160,531290,0,1.0078125,-0.037109375,0.001953125,-0.03515625,0.0,0.0,0.0
664794410,531291,0,1.0078125,-0.033203125,0.00390625,-0.029296875,0.0,0.0,0.0
664795662,531292,0,1.01171875,-0.033203125,0.009765625,-0.0234375,0.0,0.0,0.0
664796912,531293,0,1.0,-0.037109375,0.017578125,-0.01953125,0.0,0.0,0.0
664798163,531294,0,1.0078125,-0.037109375,0.0078125,-0.029296875,0.0,0.0,0.0
664799413,531295,0,1.00390625,-0.03515625,0.01171875,-0.0234375,0.0,0.0,0.0
664800664,531296,0,1.009765625,-0.0390625,0.0078125,-0.03125,0.0,0.0,0.0
664801915,531297,0,1.001953125,-0.0390625,0.017578125,-0.021484375,0.0,0.0,0.0
664803167,531298,0,1.001953125,-0.03515625,0.0078125,-0.02734375,0.0,0.0,0.0
664804417,531299,0,1.00390625,-0.037109375,0.0078125,-0.029296875,0.0,0.0,0.0
664805668,531300,0,1.00390625,-0.0390625,0.005859375,-0.033203125,0.0,0.0,0.0
664806920,531301,0,1.005859375,-0.03515625,0.005859375,-0.029296875,0.0,0.0,0.0
664808171,531302,0,1.00390625,-0.037109375,0.01171875,-0.025390625,0.0,0.0,0.0
664809422,531303,0,1.0,-0.02734375,0.013671875,-0.013671875,0.0,0.0,0.0
664810674,531304,0,1.00390625,-0.03515625,0.013671875,-0.021484375,0.0,0.0,0.0
664811924,531305,0,1.01953125,-0.033203125,0.01171875,-0.021484375,0.0,0.0,0.0
664813175,531306,0,1.009765625,-0.037109375,0.01171875,-0.025390625,0.0,0.0,0.0
664814426,531307,0,1.009765625,-0.033203125,0.001953125,-0.03125,0.0,0.0,0.0
664815677,531308,0,1.005859375,-0.033203125,0.015625,-0.017578125,0.0,0.0,0.0
664816928,531309,0,1.0,-0.03515625,0.0078125,-0.02734375,0.0,0.0,0.0
664818179,531310,0,1.005859375,-0.03125,0.005859375,-0.025390625,0.0,0.0,0.0
664819431,531311,0,1.001953125,-0.03125,0.013671875,-0.017578125,0.0,0.0,0.0
664820681,531312,0,1.0078125,-0.029296875,0.009765625,-0.01953125,0.0,0.0,0.0
664821932,531313,0,1.00390625,-0.03125,0.013671875,-0.017578125,0.0,0.0,0.0
664823182,531314,0,1.001953125,-0.03515625,0.01171875,-0.0234375,0.0,0.0,0.0
664824432,531315,0,1.001953125,-0.029296875,0.01171875,-0.017578125,0.0,0.0,0.0
664825684,531316,0,0.998046875,-0.03125,0.005859375,-0.025390625,0.0,0.0,0.0
664826934,531317,0,1.005859375,-0.02734375,0.009765625,-0.017578125,0.0,0.0,0.0
664828185,531318,0,1.001953125,-0.033203125,0.017578125,-0.015625,0.0,0.0,0.0
664829436,531319,0,1.001953125,-0.033203125,0.0078125,-0.025390625,0.0,0.0,0.0
664830687,531320,0,1.015625,-0.029296875,0.009765625,-0.01953125,0.0,0.0,0.0
664831937,531321,0,1.00390625,-0.029296875,0.005859375,-0.0234375,0.0,0.0,0.0
664833187,531322,0,1.0078125,-0.029296875,0.01171875,-0.017578125,0.0,0.0,0.0
664834439,531323,0,1.0078125,-0.029296875,0.0078125,-0.021484375,0.0,0.0,0.0
664835690,531324,0,1.001953125,-0.03125,0.013671875,-0.017578125,0.0,0.0,0.0
664836940,531325,0,0.994140625,-0.02734375,0.015625,-0.01171875,0.0,0.0,0.0
664838192,531326,0,1.005859375,-0.025390625,0.01171875,-0.013671875,0.0,0.0,0.0
664839443,531327,0,1.00390625,-0.02734375,0.015625,-0.01171875,0.0,0.0,0.0
664840694,531328,0,1.00390625,-0.02734375,0.0078125,-0.01953125,0.0,0.0,0.0
664841944,531329,0,1.009765625,-0.02734375,0.0078125,-0.01953125,0.0,0.0,0.0
664843194,531330,0,1.0,-0.033203125,0.013671875,-0.01953125,0.0,0.0,0.0
664844445,531331,0,1.005859375,-0.033203125,0.01171875,-0.021484375,0.0,0.0,0.0
664845697,531332,0,1.005859375,-0.033203125,0.009765625,-0.0234375,0.0,0.0,0.0
664846947,531333,0,1.005859375,-0.03125,0.013671875,-0.017578125,0.0,0.0,0.0
664848199,531334,0,1.009765625,-0.03515625,0.005859375,-0.029296875,0.0,0.0,0.0
664849449,531335,0,1.0078125,-0.033203125,0.0078125,-0.025390625,0.0,0.0,0.0
664850701,531336,0,1.001953125,-0.03515625,0.009765625,-0.025390625,0.0,0.0,0.0
664851951,531337,0,1.0078125,-0.03125,0.009765625,-0.021484375,0.0,0.0,0.0
664853202,531338,0,1.00390625,-0.03125,0.009765625,-0.021484375,0.0,0.0,0.0
664854454,531339,0,1.00390625,-0.029296875,0.0078125,-0.021484375,0.0,0.0,0.0
664855704,531340,0,1.01171875,-0.03515625,0.009765625,-0.025390625,0.0,0.0,0.0
664856955,531341,0,1.0,-0.0390625,0.01171875,-0.02734375,0.0,0.0,0.0
664858206,531342,0,1.001953125,-0.03515625,0.0078125,-0.02734375,0.0,0.0,0.0
664859457,531343,0,1.00390625,-0.0390625,0.013671875,-0.025390625,0.0,0.0,0.0
664860708,531344,0,1.001953125,-0.0390625,0.01171875,-0.02734375,0.0,0.0,0.0
664861959,531345,0,1.00390625,-0.037109375,0.0078125,-0.029296875,0.0,0.0,0.0
664863211,531346,0,1.01171875,-0.041015625,0.0078125,-0.033203125,0.0,0.0,0.0
664864463,531347,0,1.0,-0.033203125,0.01171875,-0.021484375,0.0,0.0,0.0
664865713,531348,0,1.00390625,-0.0390625,0.00390625,-0.03515625,0.0,0.0,0.0
664866965,531349,0,1.005859375,-0.037109375,0.0078125,-0.029296875,0.0,0.0,0.0
664868215,531350,0,1.0,-0.03515625,0.00390625,-0.03125,0.0,0.0,0.0
664869466,531351,0,1.001953125,-0.037109375,0.009765625,-0.02734375,0.0,0.0,0.0
664870716,531352,0,1.005859375,-0.037109375,0.00390625,-0.033203125,0.0,0.0,0.0
664871966,531353,0,1.0078125,-0.03515625,0.01171875,-0.0234375,0.0,0.0,0.0
664873216,531354,0,1.00390625,-0.037109375,0.0078125,-0.029296875,0.0,0.0,0.0
664874468,531355,0,1.001953125,-0.033203125,0.013671875,-0.01953125,0.0,0.0,0.0
664875719,531356,0,1.001953125,-0.033203125,0.01171875,-0.021484375,0.0,0.0,0.0
664876969,531357,0,1.00390625,-0.037109375,0.013671875,-0.0234375,0.0,0.0,0.0
664878221,531358,0,1.001953125,-0.03515625,0.009765625,-0.025390625,0.0,0.0,0.0
664879471,531359,0,0.99609375,-0.033203125,0.013671875,-0.01953125,0.0,0.0,0.0
664880723,531360,0,1.001953125,-0.033203125,0.015625,-0.017578125,0.0,0.0,0.0
664881973,531361,0,1.005859375,-0.0390625,0.015625,-0.0234375,0.0,0.0,0.0
664883225,531362,0,1.00390625,-0.03515625,0.01171875,-0.0234375,0.0,0.0,0.0
664884476,531363,0,1.00390625,-0.03125,0.00390625,-0.02734375,0.0,0.0,0.0
664885727,531364,0,1.00390625,-0.029296875,0.017578125,-0.01171875,0.0,0.0,0.0
664886977,531365,0,1.009765625,-0.033203125,0.009765625,-0.0234375,0.0,0.0,0.0
664888228,531366,0,1.0,-0.03515625,0.009765625,-0.025390625,0.0,0.0,0.0
664889479,531367,0,0.994140625,-0.029296875,0.013671875,-0.015625,0.0,0.0,0.0
664890730,531368,0,1.0078125,-0.033203125,0.015625,-0.017578125,0.0,0.0,0.0
664891981,531369,0,1.005859375,-0.025390625,0.005859375,-0.01953125,0.0,0.0,0.0
664893233,531370,0,1.009765625,-0.03515625,0.01171875,-0.0234375,0.0,0.0,0.0
664894484,531371,0,0.998046875,-0.02734375,0.013671875,-0.013671875,0.0,0.0,0.0
664895734,531372,0,1.005859375,-0.029296875,0.009765625,-0.01953125,0.0,0.0,0.0
664896984,531373,0,0.99609375,-0.029296875,0.01171875,-0.017578125,0.0,0.0,0.0
664898235,531374,0,1.001953125,-0.03125,0.013671875,-0.017578125,0.0,0.0,0.0
664899486,531375,0,1.0078125,-0.029296875,0.015625,-0.013671875,0.0,0.0,0.0
664900737,531376,0,1.001953125,-0.029296875,0.01953125,-0.009765625,0.0,0.0,0.0
664901987,531377,0,1.005859375,-0.029296875,0.005859375,-0.0234375,0.0,0.0,0.0
664903238,531378,0,1.0078125,-0.02734375,0.005859375,-0.021484375,0.0,0.0,0.0
664904489,531379,0,1.0,-0.029296875,0.009765625,-0.01953125,0.0,0.0,0.0
664905740,531380,0,1.00390625,-0.03125,0.013671875,-0.017578125,0.0,0.0,0.0
664906992,531381,0,1.0,-0.02734375,0.017578125,-0.009765625,0.0,0.0,0.0
664908242,531382,0,1.00390625,-0.03515625,0.0078125,-0.02734375,0.0,0.0,0.0
664909493,531383,0,1.001953125,-0.025390625,0.009765625,-0.015625,0.0,0.0,0.0
664910744,531384,0,1.00390625,-0.02734375,0.013671875,-0.013671875,0.0,0.0,0.0
664911994,531385,0,1.0078125,-0.037109375,0.013671875,-0.0234375,0.0,0.0,0.0
664913245,531386,0,1.0078125,-0.02734375,0.0078125,-0.01953125,0.0,0.0,0.0
664914497,531387,0,1.01171875,-0.037109375,0.00390625,-0.033203125,0.0,0.0,0.0
664915749,531388,0,1.001953125,-0.033203125,0.005859375,-0.02734375,0.0,0.0,0.0
664916999,531389,0,1.00390625,-0.02734375,0.017578125,-0.009765625,0.0,0.0,0.0
664918250,531390,0,1.0078125,-0.033203125,0.013671875,-0.01953125,0.0,0.0,0.0
664919500,531391,0,0.99609375,-0.03515625,0.01171875,-0.0234375,0.0,0.0,0.0
664920752,531392,0,1.009765625,-0.03125,0.009765625,-0.021484375,0.0,0.0,0.0
664922003,531393,0,1.001953125,-0.03515625,0.009765625,-0.025390625,0.0,0.0,0.0
664923254,531394,0,1.00390625,-0.033203125,0.005859375,-0.02734375,0.0,0.0,0.0
664924504,531395,0,1.005859375,-0.03515625,0.015625,-0.01953125,0.0,0.0,0.0
664925756,531396,0,1.0,-0.037109375,0.005859375,-0.03125,0.0,0.0,0.0
664927006,531397,0,1.009765625,-0.03515625,0.0078125,-0.02734375,0.0,0.0,0.0
664928257,531398,0,1.009765625,-0.037109375,0.005859375,-0.03125,0.0,0.0,0.0
664929508,531399,0,1.001953125,-0.03125,0.009765625,-0.021484375,0.0,0.0,0.0
664930759,531400,0,1.001953125,-0.037109375,0.0078125,-0.029296875,0.0,0.0,0.0
664932009,531401,0,1.005859375,-0.03515625,0.005859375,-0.029296875,0.0,0.0,0.0
664933259,531402,0,1.001953125,-0.037109375,0.01171875,-0.025390625,0.0,0.0,0.0
664934510,531403,0,1.0078125,-0.03515625,0.0078125,-0.02734375,0.0,0.0,0.0
664935762,531404,0,1.005859375,-0.03515625,0.0078125,-0.02734375,0.0,0.0,0.0
664937013,531405,0,1.00390625,-0.03515625,0.009765625,-0.025390625,0.0,0.0,0.0
664938271,531406,0,1.00390625,-0.037109375,0.005859375,-0.03125,0.0,0.0,0.0
664939522,531407,0,1.00390625,-0.033203125,0.0078125,-0.025390625,0.0,0.0,0.0
664940773,531408,0,1.009765625,-0.037109375,0.00390625,-0.033203125,0.0,0.0,0.0
664942025,531409,0,1.009765625,-0.029296875,0.0078125,-0.021484375,0.0,0.0,0.0
664943277,531410,0,1.0078125,-0.03125,0.015625,-0.015625,0.0,0.0,0.0
664944528,531411,0,1.001953125,-0.03125,0.0078125,-0.0234375,0.0,0.0,0.0
664945779,531412,0,1.0,-0.037109375,0.009765625,-0.02734375,0.0,0.0,0.0
664947031,531413,0,0.998046875,-0.03515625,0.005859375,-0.029296875,0.0,0.0,0.0
664948283,531414,0,1.00390625,-0.03515625,0.00390625,-0.03125,0.0,0.0,0.0
664949535,531415,0,1.0,-0.03125,0.005859375,-0.025390625,0.0,0.0,0.0
664950786,531416,0,1.001953125,-0.029296875,0.0078125,-0.021484375,0.0,0.0,0.0
664952036,531417,0,1.005859375,-0.029296875,0.01171875,-0.017578125,0.0,0.0,0.0
664953287,531418,0,1.00390625,-0.033203125,0.009765625,-0.0234375,0.0,0.0,0.0
664954537,531419,0,1.001953125,-0.033203125,0.015625,-0.017578125,0.0,0.0,0.0
664955787,531420,0,1.0078125,-0.03125,0.009765625,-0.021484375,0.0,0.0,0.0
664957038,531421,0,1.00390625,-0.03125,0.009765625,-0.021484375,0.0,0.0,0.0
664958289,531422,0,1.0078125,-0.029296875,0.013671875,-0.015625,0.0,0.0,0.0
664959539,531423,0,1.005859375,-0.03125,0.009765625,-0.021484375,0.0,0.0,0.0
664960790,531424,0,1.005859375,-0.033203125,0.005859375,-0.02734375,0.0,0.0,0.0
664962042,531425,0,1.0078125,-0.029296875,0.01171875,-0.017578125,0.0,0.0,0.0
664963292,531426,0,1.005859375,-0.029296875,0.005859375,-0.0234375,0.0,0.0,0.0
664964543,531427,0,1.0078125,-0.03125,0.013671875,-0.017578125,0.0,0.0,0.0
664965794,531428,0,1.001953125,-0.03125,0.015625,-0.015625,0.0,0.0,0.0
664967044,531429,0,1.001953125,-0.03515625,0.01171875,-0.0234375,0.0,0.0,0.0
664968294,531430,0,1.005859375,-0.03515625,0.01171875,-0.0234375,0.0,0.0,0.0
664969544,531431,0,1.0,-0.03125,0.013671875,-0.017578125,0.0,0.0,0.0
664970796,531432,0,1.013671875,-0.03125,0.0078125,-0.0234375,0.0,0.0,0.0
664972047,531433,0,1.009765625,-0.033203125,0.013671875,-0.01953125,0.0,0.0,0.0
664973297,531434,0,1.001953125,-0.03125,0.0078125,-0.0234375,0.0,0.0,0.0
664974548,531435,0,0.990234375,-0.03515625,0.009765625,-0.025390625,0.0,0.0,0.0
664975800,531436,0,1.015625,-0.03515625,0.01171875,-0.0234375,0.0,0.0,0.0
664977050,531437,0,1.001953125,-0.03125,0.0078125,-0.0234375,0.0,0.0,0.0
664978300,531438,0,0.99609375,-0.033203125,0.009765625,-0.0234375,0.0,0.0,0.0
664979550,531439,0,1.00390625,-0.03125,0.01171875,-0.01953125,0.0,0.0,0.0
664980801,531440,0,1.0078125,-0.029296875,0.009765625,-0.01953125,0.0,0.0,0.0
664982052,531441,0,1.01171875,-0.03125,0.015625,-0.015625,0.0,0.0,0.0
664983302,531442,0,1.0078125,-0.029296875,0.0078125,-0.021484375,0.0,0.0,0.0
664984553,531443,0,1.00390625,-0.02734375,0.009765625,-0.017578125,0.0,0.0,0.0
664985804,531444,0,1.005859375,-0.03515625,0.009765625,-0.025390625,0.0,0.0,0.0
664987054,531445,0,1.00390625,-0.03125,0.0078125,-0.0234375,0.0,0.0,0.0
664988305,531446,0,1.0,-0.03515625,0.001953125,-0.033203125,0.0,0.0,0.0
664989556,531447,0,1.0078125,-0.037109375,0.0078125,-0.029296875,0.0,0.0,0.0
664990807,531448,0,1.0078125,-0.037109375,0.013671875,-0.0234375,0.0,0.0,0.0
664992058,531449,0,1.009765625,-0.033203125,0.005859375,-0.02734375,0.0,0.0,0.0
664993310,531450,0,1.0078125,-0.03515625,0.005859375,-0.029296875,0.0,0.0,0.0
664994560,531451,0,0.998046875,-0.033203125,0.0078125,-0.025390625,0.0,0.0,0.0
664995810,531452,0,1.01171875,-0.037109375,0.0078125,-0.029296875,0.0,0.0,0.0
664997060,531453,0,1.01171875,-0.03125,0.00390625,-0.02734375,0.0,0.0,0.0
664998311,531454,0,1.0,-0.033203125,0.005859375,-0.02734375,0.0,0.0,0.0
664999561,531455,0,1.013671875,-0.03515625,0.0,-0.03515625,0.0,0.0,0.0
665000813,531456,0,1.00390625,-0.03515625,0.00390625,-0.03125,0.0,0.0,0.0
665002063,531457,0,1.005859375,-0.037109375,0.017578125,-0.01953125,0.0,0.0,0.0
665003313,531458,0,1.00390625,-0.03515625,0.009765625,-0.025390625,0.0,0.0,0.0
665004565,531459,0,1.00390625,-0.03125,0.01953125,-0.01171875,0.0,0.0,0.0
665005816,531460,0,1.005859375,-0.037109375,0.01171875,-0.025390625,0.0,0.0,0.0
665007066,531461,0,1.0078125,-0.037109375,0.005859375,-0.03125,0.0,0.0,0.0
665008316,531462,0,1.005859375,-0.03125,0.001953125,-0.029296875,0.0,0.0,0.0
665009567,531463,0,1.009765625,-0.033203125,0.009765625,-0.0234375,0.0,0.0,0.0
665010817,531464,0,1.00390625,-0.03515625,0.0078125,-0.02734375,0.0,0.0,0.0
665012069,531465,0,1.0078125,-0.03125,0.001953125,-0.029296875,0.0,0.0,0.0
665013319,531466,0,1.009765625,-0.033203125,0.005859375,-0.02734375,0.0,0.0,0.0
665014570,531467,0,1.0078125,-0.037109375,0.01171875,-0.025390625,0.0,0.0,0.0
665015822,531468,0,1.005859375,-0.029296875,0.0078125,-0.021484375,0.0,0.0,0.0
665017072,531469,0,1.001953125,-0.033203125,0.0078125,-0.025390625,0.0,0.0,0.0
665018322,531470,0,1.0,-0.033203125,0.013671875,-0.01953125,0.0,0.0,0.0
665019572,531471,0,1.01171875,-0.03125,0.013671875,-0.017578125,0.0,0.0,0.0
665020823,531472,0,1.00390625,-0.02734375,0.013671875,-0.013671875,0.0,0.0,0.0
665022075,531473,0,1.00390625,-0.037109375,0.013671875,-0.0234375,0.0,0.0,0.0
665023326,531474,0,1.015625,-0.033203125,0.01171875,-0.021484375,0.0,0.0,0.0
665024576,531475,0,1.0,-0.03515625,0.01171875,-0.0234375,0.0,0.0,0.0
665025827,531476,0,1.015625,-0.037109375,0.01171875,-0.025390625,0.0,0.0,0.0
665027077,531477,0,1.01171875,-0.03125,0.013671875,-0.017578125,0.0,0.0,0.0
665028327,531478,0,1.00390625,-0.033203125,0.013671875,-0.01953125,0.0,0.0,0.0
665029578,531479,0,0.994140625,-0.033203125,0.009765625,-0.0234375,0.0,0.0,0.0
665030829,531480,0,1.00390625,-0.033203125,0.013671875,-0.01953125,0.0,0.0,0.0
665032080,531481,0,1.001953125,-0.033203125,0.009765625,-0.0234375,0.0,0.0,0.0
665033332,531482,0,1.00390625,-0.03125,0.009765625,-0.021484375,0.0,0.0,0.0
665034582,531483,0,1.001953125,-0.029296875,0.009765625,-0.01953125,0.0,0.0,0.0
665035834,531484,0,0.998046875,-0.033203125,0.009765625,-0.0234375,0.0,0.0,0.0
665037085,531485,0,1.005859375,-0.033203125,0.015625,-0.017578125,0.0,0.0,0.0
665038335,531486,0,1.001953125,-0.033203125,0.0078125,-0.025390625,0.0,0.0,0.0
665039586,531487,0,1.005859375,-0.037109375,0.005859375,-0.03125,0.0,0.0,0.0
665040838,531488,0,1.009765625,-0.03125,0.009765625,-0.021484375,0.0,0.0,0.0
665042088,531489,0,1.001953125,-0.03125,0.015625,-0.015625,0.0,0.0,0.0
665043338,531490,0,1.00390625,-0.03125,0.0078125,-0.0234375,0.0,0.0,0.0
665044589,531491,0,1.005859375,-0.033203125,0.01953125,-0.013671875,0.0,0.0,0.0
665045839,531492,0,1.00390625,-0.037109375,0.009765625,-0.02734375,0.0,0.0,0.0
665047091,531493,0,1.005859375,-0.03125,0.01171875,-0.01953125,0.0,0.0,0.0
665048341,531494,0,1.005859375,-0.029296875,0.0078125,-0.021484375,0.0,0.0,0.0
665049592,531495,0,1.0078125,-0.03125,0.009765625,-0.021484375,0.0,0.0,0.0
665050844,531496,0,1.0078125,-0.0234375,0.013671875,-0.009765625,0.0,0.0,0.0
665052094,531497,0,1.005859375,-0.0390625,0.009765625,-0.029296875,0.0,0.0,0.0
665053344,531498,0,1.013671875,-0.037109375,0.001953125,-0.03515625,0.0,0.0,0.0
665054595,531499,0,0.99609375,-0.029296875,0.009765625,-0.01953125,0.0,0.0,0.0
665055846,531500,0,0.998046875,-0.037109375,0.0078125,-0.029296875,0.0,0.0,0.0
665057096,531501,0,1.0,-0.03515625,0.0078125,-0.02734375,0.0,0.0,0.0
665058346,531502,0,1.0,-0.029296875,0.0078125,-0.021484375,0.0,0.0,0.0
665059596,531503,0,1.005859375,-0.02734375,0.013671875,-0.013671875,0.0,0.0,0.0
665060848,531504,0,0.998046875,-0.033203125,0.01171875,-0.021484375,0.0,0.0,0.0
665062098,531505,0,1.0078125,-0.029296875,0.005859375,-0.0234375,0.0,0.0,0.0
665063349,531506,0,1.001953125,-0.033203125,0.0078125,-0.025390625,0.0,0.0,0.0
665064601,531507,0,1.0078125,-0.033203125,0.013671875,-0.01953125,0.0,0.0,0.0
665065852,531508,0,1.00390625,-0.03125,0.013671875,-0.017578125,0.0,0.0,0.0
665067102,531509,0,1.00390625,-0.037109375,0.01171875,-0.025390625,0.0,0.0,0.0
665068354,531510,0,1.005859375,-0.037109375,0.015625,-0.021484375,0.0,0.0,0.0
665069605,531511,0,1.001953125,-0.03515625,0.0078125,-0.02734375,0.0,0.0,0.0
665070855,531512,0,1.001953125,-0.033203125,0.013671875,-0.01953125,0.0,0.0,0.0
665072107,531513,0,1.001953125,-0.03125,0.017578125,-0.013671875,0.0,0.0,0.0
665073357,531514,0,1.001953125,-0.03125,0.0078125,-0.0234375,0.0,0.0,0.0
665074608,531515,0,0.99609375,-0.0390625,0.00390625,-0.03515625,0.0,0.0,0.0
665075859,531516,0,1.00390625,-0.03515625,0.0078125,-0.02734375,0.0,0.0,0.0
665077109,531517,0,1.009765625,-0.03515625,0.0078125,-0.02734375,0.0,0.0,0.0
665078360,531518,0,1.00390625,-0.03515625,0.009765625,-0.025390625,0.0,0.0,0.0
665079612,531519,0,1.001953125,-0.03125,-0.03125,-0.0625,0.0,0.0,0.0
665080862,531520,0,1.0078125,-0.033203125,0.005859375,-0.02734375,0.0,0.0,0.0
665082113,531521,0,1.00390625,-0.033203125,0.015625,-0.017578125,0.0,0.0,0.0
665083365,531522,0,1.00390625,-0.029296875,0.01171875,-0.017578125,0.0,0.0,0.0
665084616,531523,0,1.001953125,-0.033203125,0.009765625,-0.0234375,0.0,0.0,0.0
665085867,531524,0,1.005859375,-0.03515625,0.01171875,-0.0234375,0.0,0.0,0.0
665087118,531525,0,1.00390625,-0.033203125,0.013671875,-0.01953125,0.0,0.0,0.0
665088368,531526,0,1.0,-0.03125,0.0078125,-0.0234375,0.0,0.0,0.0
665089619,531527,0,1.001953125,-0.03125,0.009765625,-0.021484375,0.0,0.0,0.0
665090871,531528,0,1.001953125,-0.029296875,0.005859375,-0.0234375,0.0,0.0,0.0
665092121,531529,0,1.00390625,-0.033203125,0.013671875,-0.01953125,0.0,0.0,0.0
665093371,531530,0,1.001953125,-0.03125,0.009765625,-0.021484375,0.0,0.0,0.0
665094623,531531,0,1.0078125,-0.029296875,0.01171875,-0.017578125,0.0,0.0,0.0
665095873,531532,0,1.005859375,-0.029296875,0.013671875,-0.015625,0.0,0.0,0.0
665097124,531533,0,1.0078125,-0.033203125,0.01171875,-0.021484375,0.0,0.0,0.0
665098376,531534,0,1.005859375,-0.03515625,0.009765625,-0.025390625,0.0,0.0,0.0
665099626,531535,0,0.998046875,-0.03125,0.013671875,-0.017578125,0.0,0.0,0.0
665100877,531536,0,1.005859375,-0.02734375,0.009765625,-0.017578125,0.0,0.0,0.0
665102127,531537,0,1.00390625,-0.03125,0.013671875,-0.017578125,0.0,0.0,0.0
665103377,531538,0,1.001953125,-0.029296875,0.009765625,-0.01953125,0.0,0.0,0.0
665104629,531539,0,1.00390625,-0.029296875,0.009765625,-0.01953125,0.0,0.0,0.0
665105879,531540,0,1.015625,-0.033203125,0.005859375,-0.02734375,0.0,0.0,0.0
665107130,531541,0,1.009765625,-0.02734375,0.009765625,-0.017578125,0.0,0.0,0.0
665108381,531542,0,1.005859375,-0.03515625,0.013671875,-0.021484375,0.0,0.0,0.0
665109631,531543,0,0.998046875,-0.029296875,0.013671875,-0.015625,0.0,0.0,0.0
665110883,531544,0,1.001953125,-0.03125,0.01171875,-0.01953125,0.0,0.0,0.0
665112134,531545,0,1.00390625,-0.033203125,0.017578125,-0.015625,0.0,0.0,0.0
665113384,531546,0,1.005859375,-0.033203125,0.009765625,-0.0234375,0.0,0.0,0.0
665114635,531547,0,1.0078125,-0.03125,0.0078125,-0.0234375,0.0,0.0,0.0
665115887,531548,0,1.005859375,-0.03125,0.00390625,-0.02734375,0.0,0.0,0.0
665117137,531549,0,1.005859375,-0.033203125,0.009765625,-0.0234375,0.0,0.0,0.0
665118388,531550,0,1.00390625,-0.033203125,0.0078125,-0.025390625,0.0,0.0,0.0
665119639,531551,0,1.0,-0.03515625,0.015625,-0.01953125,0.0,0.0,0.0
665120889,531552,0,1.001953125,-0.03125,0.009765625,-0.021484375,0.0,0.0,0.0
665122140,531553,0,1.00390625,-0.03515625,0.001953125,-0.033203125,0.0,0.0,0.0
665123392,531554,0,1.005859375,-0.03125,0.0078125,-0.0234375,0.0,0.0,0.0
665124642,531555,0,1.0,-0.03515625,0.0078125,-0.02734375,0.0,0.0,0.0
665125894,531556,0,1.01171875,-0.033203125,0.01171875,-0.021484375,0.0,0.0,0.0
665127145,531557,0,1.01171875,-0.029296875,0.005859375,-0.0234375,0.0,0.0,0.0
665128396,531558,0,0.998046875,-0.029296875,0.01171875,-0.017578125,0.0,0.0,0.0
665129647,531559,0,1.0,-0.029296875,0.009765625,-0.01953125,0.0,0.0,0.0
665130899,531560,0,1.009765625,-0.03125,0.013671875,-0.017578125,0.0,0.0,0.0
665132150,531561,0,1.00390625,-0.03125,0.01171875,-0.01953125,0.0,0.0,0.0
665133400,531562,0,1.001953125,-0.03515625,0.013671875,-0.021484375,0.0,0.0,0.0
665134652,531563,0,1.013671875,-0.03515625,0.0078125,-0.02734375,0.0,0.0,0.0
665135902,531564,0,1.01171875,-0.033203125,0.001953125,-0.03125,0.0,0.0,0.0
665137152,531565,0,1.009765625,-0.03125,0.017578125,-0.013671875,0.0,0.0,0.0
665138402,531566,0,1.00390625,-0.03125,0.017578125,-0.013671875,0.0,0.0,0.0
665139653,531567,0,1.005859375,-0.03515625,0.013671875,-0.021484375,0.0,0.0,0.0
665140904,531568,0,1.005859375,-0.033203125,0.01171875,-0.021484375,0.0,0.0,0.0
665142154,531569,0,1.001953125,-0.033203125,0.009765625,-0.0234375,0.0,0.0,0.0
665143406,531570,0,1.0078125,-0.033203125,0.01171875,-0.021484375,0.0,0.0,0.0
665144657,531571,0,0.998046875,-0.033203125,0.005859375,-0.02734375,0.0,0.0,0.0
665145907,531572,0,0.998046875,-0.033203125,0.0078125,-0.025390625,0.0,0.0,0.0
665147158,531573,0,0.99609375,-0.03515625,0.009765625,-0.025390625,0.0,0.0,0.0
665148408,531574,0,1.0,-0.033203125,0.01171875,-0.021484375,0.0,0.0,0.0
665149659,531575,0,1.001953125,-0.03515625,0.009765625,-0.025390625,0.0,0.0,0.0
665150910,531576,0,1.0078125,-0.033203125,0.009765625,-0.0234375,0.0,0.0,0.0
665152160,531577,0,1.009765625,-0.03515625,0.01171875,-0.0234375,0.0,0.0,0.0
665153410,531578,0,1.005859375,-0.03125,0.0078125,-0.0234375,0.0,0.0,0.0
665154662,531579,0,1.0078125,-0.029296875,0.013671875,-0.015625,0.0,0.0,0.0
665155912,531580,0,1.00390625,-0.03515625,0.001953125,-0.033203125,0.0,0.0,0.0
665157163,531581,0,1.005859375,-0.03515625,0.0078125,-0.02734375,0.0,0.0,0.0
665158413,531582,0,1.005859375,-0.03125,0.01171875,-0.01953125,0.0,0.0,0.0
665159664,531583,0,1.005859375,-0.037109375,0.013671875,-0.0234375,0.0,0.0,0.0
665160915,531584,0,1.0078125,-0.03125,0.015625,-0.015625,0.0,0.0,0.0
665162167,531585,0,0.99609375,-0.03125,0.0078125,-0.0234375,0.0,0.0,0.0
665163417,531586,0,1.0078125,-0.033203125,0.009765625,-0.0234375,0.0,0.0,0.0
665164668,531587,0,1.001953125,-0.033203125,0.013671875,-0.01953125,0.0,0.0,0.0
665165920,531588,0,1.0,-0.033203125,0.0078125,-0.025390625,0.0,0.0,0.0
665167171,531589,0,1.00390625,-0.02734375,0.009765625,-0.017578125,0.0,0.0,0.0
665168422,531590,0,1.0078125,-0.02734375,0.017578125,-0.009765625,0.0,0.0,0.0
665169674,531591,0,1.005859375,-0.03125,0.013671875,-0.017578125,0.0,0.0,0.0
665170924,531592,0,1.005859375,-0.03515625,0.009765625,-0.025390625,0.0,0.0,0.0
665172175,531593,0,1.009765625,-0.033203125,0.015625,-0.017578125,0.0,0.0,0.0
665173426,531594,0,1.005859375,-0.03515625,0.009765625,-0.025390625,0.0,0.0,0.0
665174677,531595,0,0.998046875,-0.033203125,0.01171875,-0.021484375,0.0,0.0,0.0
665175928,531596,0,1.005859375,-0.037109375,0.009765625,-0.02734375,0.0,0.0,0.0
665177179,531597,0,1.00390625,-0.02734375,0.0078125,-0.01953125,0.0,0.0,0.0
665178431,531598,0,1.0078125,-0.03125,0.015625,-0.015625,0.0,0.0,0.0
665179681,531599,0,1.005859375,-0.029296875,0.009765625,-0.01953125,0.0,0.0,0.0
665180932,531600,0,1.001953125,-0.03515625,0.013671875,-0.021484375,0.0,0.0,0.0
665182182,531601,0,1.0078125,-0.025390625,0.0078125,-0.017578125,0.0,0.0,0.0
665183432,531602,0,0.99609375,-0.033203125,0.009765625,-0.0234375,0.0,0.0,0.0
665184684,531603,0,0.99609375,-0.025390625,0.009765625,-0.015625,0.0,0.0,0.0
665185934,531604,0,1.017578125,-0.03515625,0.01171875,-0.0234375,0.0,0.0,0.0
665187185,531605,0,1.001953125,-0.033203125,0.01953125,-0.013671875,0.0,0.0,0.0
665188436,531606,0,1.015625,-0.03125,0.009765625,-0.021484375,0.0,0.0,0.0
665189687,531607,0,1.00390625,-0.03515625,0.013671875,-0.021484375,0.0,0.0,0.0
665190937,531608,0,0.998046875,-0.03125,0.0078125,-0.0234375,0.0,0.0,0.0
665192187,531609,0,1.005859375,-0.033203125,0.015625,-0.017578125,0.0,0.0,0.0
665193439,531610,0,1.0078125,-0.03515625,0.00390625,-0.03125,0.0,0.0,0.0
665194690,531611,0,1.001953125,-0.03125,0.013671875,-0.017578125,0.0,0.0,0.0
665195940,531612,0,1.005859375,-0.03125,0.009765625,-0.021484375,0.0,0.0,0.0
665197192,531613,0,1.0078125,-0.033203125,0.0078125,-0.025390625,0.0,0.0,0.0
665198443,531614,0,1.00390625,-0.037109375,0.005859375,-0.03125,0.0,0.0,0.0
665199694,531615,0,1.005859375,-0.033203125,0.005859375,-0.02734375,0.0,0.0,0.0
665200944,531616,0,1.0,-0.029296875,0.01953125,-0.009765625,0.0,0.0,0.0
665202194,531617,0,1.00390625,-0.033203125,0.015625,-0.017578125,0.0,0.0,0.0
665203445,531618,0,1.00390625,-0.033203125,0.01171875,-0.021484375,0.0,0.0,0.0
665204697,531619,0,1.0,-0.03125,0.01171875,-0.01953125,0.0,0.0,0.0
665205947,531620,0,1.001953125,-0.033203125,0.009765625,-0.0234375,0.0,0.0,0.0
665207199,531621,0,0.998046875,-0.03515625,0.015625,-0.01953125,0.0,0.0,0.0
665208449,531622,0,1.00390625,-0.037109375,0.013671875,-0.0234375,0.0,0.0,0.0
665209701,531623,0,1.00390625,-0.037109375,0.0078125,-0.029296875,0.0,0.0,0.0
665210951,531624,0,1.015625,-0.03515625,0.015625,-0.01953125,0.0,0.0,0.0
665212202,531625,0,1.009765625,-0.02734375,0.0078125,-0.01953125,0.0,0.0,0.0
665213454,531626,0,1.0078125,-0.03125,0.017578125,-0.013671875,0.0,0.0,0.0
665214704,531627,0,1.00390625,-0.033203125,0.01171875,-0.021484375,0.0,0.0,0.0
665215955,531628,0,0.998046875,-0.03125,0.009765625,-0.021484375,0.0,0.0,0.0
665217206,531629,0,1.001953125,-0.033203125,0.013671875,-0.01953125,0.0,0.0,0.0
665218457,531630,0,0.998046875,-0.03125,0.01171875,-0.01953125,0.0,0.0,0.0
665219708,531631,0,1.001953125,-0.03515625,0.009765625,-0.025390625,0.0,0.0,0.0
665220959,531632,0,1.001953125,-0.03125,0.005859375,-0.025390625,0.0,0.0,0.0
665222211,531633,0,1.005859375,-0.03125,0.00390625,-0.02734375,0.0,0.0,0.0
665223463,531634,0,1.001953125,-0.033203125,0.0078125,-0.025390625,0.0,0.0,0.0
665224713,531635,0,1.005859375,-0.03515625,0.01171875,-0.0234375,0.0,0.0,0.0
665225965,531636,0,1.00390625,-0.03125,0.005859375,-0.025390625,0.0,0.0,0.0
665227215,531637,0,1.0078125,-0.033203125,0.015625,-0.017578125,0.0,0.0,0.0
665228466,531638,0,1.001953125,-0.033203125,0.015625,-0.017578125,0.0,0.0,0.0
665229716,531639,0,1.00390625,-0.029296875,0.0078125,-0.021484375,0.0,0.0,0.0
665230966,531640,0,1.001953125,-0.03125,0.01171875,-0.01953125,0.0,0.0,0.0
665232216,531641,0,1.005859375,-0.03125,0.0078125,-0.0234375,0.0,0.0,0.0
665233468,531642,0,1.0078125,-0.033203125,0.017578125,-0.015625,0.0,0.0,0.0
665234719,531643,0,1.009765625,-0.033203125,0.015625,-0.017578125,0.0,0.0,0.0
665235969,531644,0,1.01171875,-0.03125,0.01171875,-0.01953125,0.0,0.0,0.0
665237221,531645,0,1.00390625,-0.029296875,0.00390625,-0.025390625,0.0,0.0,0.0
665238471,531646,0,0.99609375,-0.033203125,0.005859375,-0.02734375,0.0,0.0,0.0
665239723,531647,0,0.998046875,-0.03125,0.01171875,-0.01953125,0.0,0.0,0.0
665240973,531648,0,1.00390625,-0.03125,0.009765625,-0.021484375,0.0,0.0,0.0
665242225,531649,0,1.00390625,-0.033203125,0.009765625,-0.0234375,0.0,0.0,0.0
665243476,531650,0,1.0078125,-0.033203125,0.01171875,-0.021484375,0.0,0.0,0.0
665244727,531651,0,1.005859375,-0.03515625,0.015625,-0.01953125,0.0,0.0,0.0
665245977,531652,0,1.0,-0.025390625,0.01953125,-0.005859375,0.0,0.0,0.0
665247228,531653,0,1.0078125,-0.029296875,0.009765625,-0.01953125,0.0,0.0,0.0
665248479,531654,0,1.00390625,-0.03125,0.00390625,-0.02734375,0.0,0.0,0.0
665249730,531655,0,0.998046875,-0.03125,0.015625,-0.015625,0.0,0.0,0.0
665250981,531656,0,1.005859375,-0.033203125,0.01171875,-0.021484375,0.0,0.0,0.0
665252233,531657,0,1.00390625,-0.033203125,0.015625,-0.017578125,0.0,0.0,0.0
665253484,531658,0,1.001953125,-0.033203125,0.009765625,-0.0234375,0.0,0.0,0.0
665254734,531659,0,1.001953125,-0.03515625,0.0078125,-0.02734375,0.0,0.0,0.0
665255984,531660,0,1.001953125,-0.03515625,0.0078125,-0.02734375,0.0,0.0,0.0
665257235,531661,0,1.00390625,-0.03515625,0.013671875,-0.021484375,0.0,0.0,0.0
665258486,531662,0,1.0,-0.03515625,0.009765625,-0.025390625,0.0,0.0,0.0
665259737,531663,0,1.01171875,-0.033203125,0.0078125,-0.025390625,0.0,0.0,0.0
665260987,531664,0,1.0,-0.03125,0.01171875,-0.01953125,0.0,0.0,0.0
665262238,531665,0,1.00390625,-0.037109375,0.009765625,-0.02734375,0.0,0.0,0.0
665263489,531666,0,1.001953125,-0.029296875,0.01953125,-0.009765625,0.0,0.0,0.0
665264740,531667,0,1.001953125,-0.03515625,0.00390625,-0.03125,0.0,0.0,0.0
665265992,531668,0,1.013671875,-0.033203125,0.0078125,-0.025390625,0.0,0.0,0.0
665267242,531669,0,1.001953125,-0.03125,0.017578125,-0.013671875,0.0,0.0,0.0
665268493,531670,0,1.001953125,-0.037109375,0.013671875,-0.0234375,0.0,0.0,0.0
665269744,531671,0,1.009765625,-0.037109375,0.00390625,-0.033203125,0.0,0.0,0.0
665270994,531672,0,1.001953125,-0.03125,0.013671875,-0.017578125,0.0,0.0,0.0
665272245,531673,0,1.0,-0.029296875,0.01953125,-0.009765625,0.0,0.0,0.0
665273497,531674,0,1.0078125,-0.033203125,0.0078125,-0.025390625,0.0,0.0,0.0
665274749,531675,0,1.0078125,-0.03515625,0.013671875,-0.021484375,0.0,0.0,0.0
665275999,531676,0,1.00390625,-0.03515625,0.015625,-0.01953125,0.0,0.0,0.0
665277250,531677,0,1.0078125,-0.037109375,0.015625,-0.021484375,0.0,0.0,0.0
665278500,531678,0,1.0,-0.033203125,0.0078125,-0.025390625,0.0,0.0,0.0
665279752,531679,0,0.998046875,-0.033203125,0.0078125,-0.025390625,0.0,0.0,0.0
665281003,531680,0,1.0,-0.03125,0.0078125,-0.0234375,0.0,0.0,0.0
665282254,531681,0,1.005859375,-0.03125,0.005859375,-0.025390625,0.0,0.0,0.0
665283504,531682,0,1.005859375,-0.033203125,0.005859375,-0.02734375,0.0,0.0,0.0
665284756,531683,0,0.998046875,-0.03515625,0.015625,-0.01953125,0.0,0.0,0.0
665286006,531684,0,1.0078125,-0.033203125,0.009765625,-0.0234375,0.0,0.0,0.0
665287257,531685,0,0.998046875,-0.03125,0.009765625,-0.021484375,0.0,0.0,0.0
665288508,531686,0,1.0,-0.02734375,0.015625,-0.01171875,0.0,0.0,0.0
665289759,531687,0,1.013671875,-0.029296875,0.013671875,-0.015625,0.0,0.0,0.0
665291009,531688,0,1.005859375,-0.02734375,0.009765625,-0.017578125,0.0,0.0,0.0
665292259,531689,0,1.0,-0.02734375,0.01171875,-0.015625,0.0,0.0,0.0
665293510,531690,0,1.001953125,-0.037109375,0.013671875,-0.0234375,0.0,0.0,0.0
665294762,531691,0,1.00390625,-0.03125,0.01171875,-0.01953125,0.0,0.0,0.0
665296013,531692,0,1.0078125,-0.03125,0.013671875,-0.017578125,0.0,0.0,0.0
665297271,531693,0,0.998046875,-0.03515625,0.009765625,-0.025390625,0.0,0.0,0.0
665298522,531694,0,1.00390625,-0.029296875,0.009765625,-0.01953125,0.0,0.0,0.0
665299773,531695,0,1.00390625,-0.033203125,0.001953125,-0.03125,0.0,0.0,0.0
665301025,531696,0,1.0,-0.03515625,0.013671875,-0.021484375,0.0,0.0,0.0
665302277,531697,0,1.005859375,-0.033203125,0.009765625,-0.0234375,0.0,0.0,0.0
665303528,531698,0,1.0078125,-0.03125,0.005859375,-0.025390625,0.0,0.0,0.0
665304779,531699,0,1.001953125,-0.037109375,0.00390625,-0.033203125,0.0,0.0,0.0
665306031,531700,0,1.00390625,-0.033203125,0.005859375,-0.02734375,0.0,0.0,0.0
665307283,531701,0,1.005859375,-0.033203125,0.0078125,-0.025390625,0.0,0.0,0.0
665308535,531702,0,1.0,-0.033203125,0.01171875,-0.021484375,0.0,0.0,0.0
665309786,531703,0,1.00390625,-0.03125,0.01953125,-0.01171875,0.0,0.0,0.0
665311036,531704,0,1.005859375,-0.03515625,0.005859375,-0.029296875,0.0,0.0,0.0
665312287,531705,0,0.998046875,-0.037109375,0.013671875,-0.0234375,0.0,0.0,0.0
665313537,531706,0,1.009765625,-0.03125,0.009765625,-0.021484375,0.0,0.0,0.0
665314787,531707,0,1.013671875,-0.03125,0.013671875,-0.017578125,0.0,0.0,0.0
665316038,531708,0,1.015625,-0.025390625,0.009765625,-0.015625,0.0,0.0,0.0
665317289,531709,0,1.0078125,-0.0390625,0.009765625,-0.029296875,0.0,0.0,0.0
665318539,531710,0,1.00390625,-0.033203125,0.005859375,-0.02734375,0.0,0.0,0.0
665319790,531711,0,1.00390625,-0.03515625,0.009765625,-0.025390625,0.0,0.0,0.0
665321042,531712,0,1.001953125,-0.037109375,0.009765625,-0.02734375,0.0,0.0,0.0
665322292,531713,0,1.001953125,-0.029296875,0.01171875,-0.017578125,0.0,0.0,0.0
665323543,531714,0,1.001953125,-0.03515625,0.009765625,-0.025390625,0.0,0.0,0.0
665324794,531715,0,1.005859375,-0.037109375,0.0078125,-0.029296875,0.0,0.0,0.0
665326044,531716,0,1.005859375,-0.033203125,0.005859375,-0.02734375,0.0,0.0,0.0
665327294,531717,0,1.0078125,-0.03515625,0.009765625,-0.025390625,0.0,0.0,0.0
665328544,531718,0,1.005859375,-0.03515625,0.009765625,-0.025390625,0.0,0.0,0.0
665329796,531719,0,1.005859375,-0.033203125,0.005859375,-0.02734375,0.0,0.0,0.0
665331047,531720,0,1.00390625,-0.03515625,0.00390625,-0.03125,0.0,0.0,0.0
665332297,531721,0,1.005859375,-0.03515625,0.0078125,-0.02734375,0.0,0.0,0.0
665333548,531722,0,1.0078125,-0.037109375,0.009765625,-0.02734375,0.0,0.0,0.0
665334800,531723,0,1.005859375,-0.03515625,0.00390625,-0.03125,0.0,0.0,0.0
665336050,531724,0,1.0,-0.029296875,0.0078125,-0.021484375,0.0,0.0,0.0
665337300,531725,0,1.005859375,-0.037109375,0.01171875,-0.025390625,0.0,0.0,0.0
665338550,531726,0,1.001953125,-0.02734375,0.005859375,-0.021484375,0.0,0.0,0.0
665339801,531727,0,1.005859375,-0.03515625,0.005859375,-0.029296875,0.0,0.0,0.0
665341052,531728,0,1.009765625,-0.03125,0.009765625,-0.021484375,0.0,0.0,0.0
665342302,531729,0,0.998046875,-0.03515625,0.0078125,-0.02734375,0.0,0.0,0.0
665343553,531730,0,1.009765625,-0.033203125,0.017578125,-0.015625,0.0,0.0,0.0
665344804,531731,0,0.994140625,-0.037109375,0.01953125,-0.017578125,0.0,0.0,0.0
665346054,531732,0,1.001953125,-0.033203125,0.01171875,-0.021484375,0.0,0.0,0.0
665347305,531733,0,0.99609375,-0.029296875,0.01171875,-0.017578125,0.0,0.0,0.0
665348556,531734,0,1.00390625,-0.037109375,0.0078125,-0.029296875,0.0,0.0,0.0
665349807,531735,0,1.005859375,-0.033203125,0.013671875,-0.01953125,0.0,0.0,0.0
665351058,531736,0,1.0,-0.037109375,0.0078125,-0.029296875,0.0,0.0,0.0
665352310,531737,0,1.005859375,-0.03125,0.01171875,-0.01953125,0.0,0.0,0.0
665353560,531738,0,1.00390625,-0.03125,0.005859375,-0.025390625,0.0,0.0,0.0
665354810,531739,0,1.0,-0.03125,0.01171875,-0.01953125,0.0,0.0,0.0
665356060,531740,0,1.001953125,-0.03125,0.015625,-0.015625,0.0,0.0,0.0
665357311,531741,0,0.998046875,-0.03125,0.01171875,-0.01953125,0.0,0.0,0.0
665358561,531742,0,0.998046875,-0.03515625,0.009765625,-0.025390625,0.0,0.0,0.0
665359813,531743,0,1.001953125,-0.033203125,0.005859375,-0.02734375,0.0,0.0,0.0
665361063,531744,0,1.005859375,-0.03125,0.013671875,-0.017578125,0.0,0.0,0.0
665362313,531745,0,1.0078125,-0.033203125,0.0078125,-0.025390625,0.0,0.0,0.0
665363565,531746,0,0.998046875,-0.037109375,0.005859375,-0.03125,0.0,0.0,0.0
665364816,531747,0,1.001953125,-0.033203125,0.01171875,-0.021484375,0.0,0.0,0.0
665366066,531748,0,1.0078125,-0.033203125,0.009765625,-0.0234375,0.0,0.0,0.0
665367316,531749,0,1.001953125,-0.0234375,0.015625,-0.0078125,0.0,0.0,0.0
665368567,531750,0,1.0,-0.029296875,0.009765625,-0.01953125,0.0,0.0,0.0
665369817,531751,0,1.00390625,-0.029296875,0.01171875,-0.017578125,0.0,0.0,0.0
665371069,531752,0,0.99609375,-0.03125,0.015625,-0.015625,0.0,0.0,0.0
665372319,531753,0,0.998046875,-0.033203125,0.0078125,-0.025390625,0.0,0.0,0.0
665373570,531754,0,1.001953125,-0.025390625,0.015625,-0.009765625,0.0,0.0,0.0
665374822,531755,0,1.005859375,-0.033203125,0.005859375,-0.02734375,0.0,0.0,0.0
665376072,531756,0,1.00390625,-0.029296875,0.013671875,-0.015625,0.0,0.0,0.0
665377322,531757,0,1.001953125,-0.029296875,0.00390625,-0.025390625,0.0,0.0,0.0
665378572,531758,0,1.005859375,-0.03125,0.017578125,-0.013671875,0.0,0.0,0.0
665379823,531759,0,1.005859375,-0.03515625,0.01171875,-0.0234375,0.0,0.0,0.0
665381075,531760,0,1.005859375,-0.03515625,0.001953125,-0.033203125,0.0,0.0,0.0
665382326,531761,0,1.001953125,-0.029296875,0.009765625,-0.01953125,0.0,0.0,0.0
665383576,531762,0,0.99609375,-0.03515625,0.01953125,-0.015625,0.0,0.0,0.0
665384827,531763,0,1.005859375,-0.033203125,0.0078125,-0.025390625,0.0,0.0,0.0
665386077,531764,0,1.005859375,-0.029296875,0.00390625,-0.025390625,0.0,0.0,0.0
665387327,531765,0,1.005859375,-0.029296875,0.0078125,-0.021484375,0.0,0.0,0.0
665388578,531766,0,1.001953125,-0.033203125,0.0078125,-0.025390625,0.0,0.0,0.0
665389829,531767,0,1.0078125,-0.03515625,0.01171875,-0.0234375,0.0,0.0,0.0
665391080,531768,0,1.001953125,-0.033203125,0.013671875,-0.01953125,0.0,0.0,0.0
665392332,531769,0,1.009765625,-0.03515625,0.013671875,-0.021484375,0.0,0.0,0.0
665393582,531770,0,1.005859375,-0.037109375,0.009765625,-0.02734375,0.0,0.0,0.0
665394834,531771,0,1.001953125,-0.03125,0.01171875,-0.01953125,0.0,0.0,0.0
665396085,531772,0,1.009765625,-0.029296875,0.01171875,-0.017578125,0.0,0.0,0.0
665397335,531773,0,1.0078125,-0.03125,0.01171875,-0.01953125,0.0,0.0,0.0
665398586,531774,0,1.00390625,-0.033203125,0.01171875,-0.021484375,0.0,0.0,0.0
665399838,531775,0,0.998046875,-0.037109375,0.01171875,-0.025390625,0.0,0.0,0.0
665401088,531776,0,1.0078125,-0.033203125,0.0078125,-0.025390625,0.0,0.0,0.0
665402338,531777,0,1.00390625,-0.03515625,0.013671875,-0.021484375,0.0,0.0,0.0
665403589,531778,0,1.0,-0.033203125,0.01171875,-0.021484375,0.0,0.0,0.0
665404839,531779,0,0.998046875,-0.03515625,0.01171875,-0.0234375,0.0,0.0,0.0
665406091,531780,0,0.998046875,-0.03125,0.0078125,-0.0234375,0.0,0.0,0.0
665407341,531781,0,1.00390625,-0.03125,0.01171875,-0.01953125,0.0,0.0,0.0
665408592,531782,0,1.0078125,-0.03515625,0.01171875,-0.0234375,0.0,0.0,0.0
665409844,531783,0,1.00390625,-0.033203125,0.009765625,-0.0234375,0.0,0.0,0.0
665411094,531784,0,1.00390625,-0.033203125,0.0078125,-0.025390625,0.0,0.0,0.0
665412344,531785,0,1.001953125,-0.03515625,0.01171875,-0.0234375,0.0,0.0,0.0
