t_us,frame_id,sensor_id,accX,accY,accZ,acc_sum_YZ,magX,magY,magZ
653586708,522331,0,1.005859375,-0.037109375,0.001953125,-0.03515625,0.0,0.0,0.0
653587959,522332,0,1.0,-0.037109375,0.015625,-0.021484375,0.0,0.0,0.0
653589211,522333,0,1.0078125,-0.033203125,0.013671875,-0.01953125,0.0,0.0,0.0
653590463,522334,0,0.99609375,-0.033203125,0.001953125,-0.03125,0.0,0.0,0.0
653591713,522335,0,1.005859375,-0.037109375,0.009765625,-0.02734375,0.0,0.0,0.0
653592965,522336,0,1.0,-0.03515625,0.015625,-0.01953125,0.0,0.0,0.0
653594215,522337,0,1.013671875,-0.033203125,0.0078125,-0.025390625,0.0,0.0,0.0
653595466,522338,0,1.005859375,-0.037109375,0.01171875,-0.025390625,0.0,0.0,0.0
653596716,522339,0,0.998046875,-0.037109375,0.01171875,-0.025390625,0.0,0.0,0.0
653597966,522340,0,1.001953125,-0.03125,0.009765625,-0.021484375,0.0,0.0,0.0
653599216,522341,0,1.0,-0.033203125,0.01171875,-0.021484375,0.0,0.0,0.0
653600468,522342,0,1.005859375,-0.033203125,0.009765625,-0.0234375,0.0,0.0,0.0
653601719,522343,0,1.001953125,-0.03125,0.013671875,-0.017578125,0.0,0.0,0.0
653602969,522344,0,1.00390625,-0.03125,0.009765625,-0.021484375,0.0,0.0,0.0
653604221,522345,0,1.0078125,-0.033203125,0.013671875,-0.01953125,0.0,0.0,0.0
653605471,522346,0,1.001953125,-0.03515625,0.01953125,-0.015625,0.0,0.0,0.0
653606723,522347,0,1.0078125,-0.033203125,0.01171875,-0.021484375,0.0,0.0,0.0
653607973,522348,0,1.001953125,-0.037109375,0.00390625,-0.033203125,0.0,0.0,0.0
653609225,522349,0,1.001953125,-0.037109375,0.009765625,-0.02734375,0.0,0.0,0.0
653610476,522350,0,1.009765625,-0.037109375,0.005859375,-0.03125,0.0,0.0,0.0
653611727,522351,0,1.0078125,-0.037109375,0.015625,-0.021484375,0.0,0.0,0.0
653612977,522352,0,1.0078125,-0.03515625,0.0,-0.03515625,0.0,0.0,0.0
653614228,522353,0,0.998046875,-0.037109375,0.0078125,-0.029296875,0.0,0.0,0.0
653615479,522354,0,1.001953125,-0.0390625,0.01171875,-0.02734375,0.0,0.0,0.0
653616730,522355,0,0.998046875,-0.03515625,0.01171875,-0.0234375,0.0,0.0,0.0
653617981,522356,0,0.998046875,-0.0390625,0.001953125,-0.037109375,0.0,0.0,0.0
653619233,522357,0,1.0,-0.03125,0.00390625,-0.02734375,0.0,0.0,0.0
653620484,522358,0,1.00390625,-0.033203125,0.01171875,-0.021484375,0.0,0.0,0.0
653621734,522359,0,1.001953125,-0.033203125,0.009765625,-0.0234375,0.0,0.0,0.0
653622984,522360,0,0.998046875,-0.033203125,0.009765625,-0.0234375,0.0,0.0,0.0
653624235,522361,0,1.005859375,-0.041015625,0.015625,-0.025390625,0.0,0.0,0.0
653625486,522362,0,1.001953125,-0.0390625,0.013671875,-0.025390625,0.0,0.0,0.0
653626737,522363,0,1.0078125,-0.0390625,0.009765625,-0.029296875,0.0,0.0,0.0
653627987,522364,0,1.001953125,-0.03515625,0.0078125,-0.02734375,0.0,0.0,0.0
653629238,522365,0,1.0,-0.033203125,0.0078125,-0.025390625,0.0,0.0,0.0
653630489,522366,0,1.00390625,-0.033203125,0.0078125,-0.025390625,0.0,0.0,0.0
653631740,522367,0,1.0078125,-0.03515625,0.015625,-0.01953125,0.0,0.0,0.0
653632992,522368,0,1.005859375,-0.037109375,0.009765625,-0.02734375,0.0,0.0,0.0
653634242,522369,0,0.998046875,-0.03515625,0.013671875,-0.021484375,0.0,0.0,0.0
653635493,522370,0,1.0,-0.03515625,0.009765625,-0.025390625,0.0,0.0,0.0
653636744,522371,0,1.0078125,-0.03515625,0.015625,-0.01953125,0.0,0.0,0.0
653637994,522372,0,1.0078125,-0.033203125,0.01171875,-0.021484375,0.0,0.0,0.0
653639245,522373,0,1.005859375,-0.0390625,0.00390625,-0.03515625,0.0,0.0,0.0
653640497,522374,0,1.0078125,-0.03125,0.015625,-0.015625,0.0,0.0,0.0
653641749,522375,0,0.994140625,-0.0390625,0.015625,-0.0234375,0.0,0.0,0.0
653642999,522376,0,1.0,-0.0390625,0.009765625,-0.029296875,0.0,0.0,0.0
653644250,522377,0,1.01171875,-0.041015625,0.005859375,-0.03515625,0.0,0.0,0.0
653645500,522378,0,1.0,-0.037109375,0.0078125,-0.029296875,0.0,0.0,0.0
653646752,522379,0,0.99609375,-0.0390625,0.00390625,-0.03515625,0.0,0.0,0.0
653648003,522380,0,1.001953125,-0.037109375,0.0078125,-0.029296875,0.0,0.0,0.0
653649254,522381,0,1.005859375,-0.037109375,0.013671875,-0.0234375,0.0,0.0,0.0
653650504,522382,0,1.005859375,-0.03515625,0.01171875,-0.0234375,0.0,0.0,0.0
653651756,522383,0,1.005859375,-0.044921875,0.005859375,-0.0390625,0.0,0.0,0.0
653653006,522384,0,1.00390625,-0.037109375,0.0078125,-0.029296875,0.0,0.0,0.0
653654257,522385,0,1.005859375,-0.037109375,0.005859375,-0.03125,0.0,0.0,0.0
653655508,522386,0,0.998046875,-0.033203125,0.009765625,-0.0234375,0.0,0.0,0.0
653656759,522387,0,1.005859375,-0.033203125,0.01171875,-0.021484375,0.0,0.0,0.0
653658009,522388,0,1.005859375,-0.03125,0.009765625,-0.021484375,0.0,0.0,0.0
653659259,522389,0,1.005859375,-0.037109375,0.005859375,-0.03125,0.0,0.0,0.0
653660510,522390,0,1.00390625,-0.03515625,0.015625,-0.01953125,0.0,0.0,0.0
653661762,522391,0,1.009765625,-0.037109375,0.015625,-0.021484375,0.0,0.0,0.0
653663013,522392,0,0.998046875,-0.033203125,0.017578125,-0.015625,0.0,0.0,0.0
653664271,522393,0,1.0078125,-0.0390625,0.009765625,-0.029296875,0.0,0.0,0.0
653665522,522394,0,1.0,-0.03515625,0.015625,-0.01953125,0.0,0.0,0.0
653666773,522395,0,1.015625,-0.033203125,0.015625,-0.017578125,0.0,0.0,0.0
653668025,522396,0,1.0078125,-0.037109375,0.009765625,-0.02734375,0.0,0.0,0.0
653669277,522397,0,1.00390625,-0.037109375,0.013671875,-0.0234375,0.0,0.0,0.0
653670528,522398,0,1.0078125,-0.0390625,0.013671875,-0.025390625,0.0,0.0,0.0
653671779,522399,0,1.009765625,-0.044921875,0.01171875,-0.033203125,0.0,0.0,0.0
653673031,522400,0,1.0078125,-0.03515625,0.005859375,-0.029296875,0.0,0.0,0.0
653674283,522401,0,1.0,-0.037109375,0.01171875,-0.025390625,0.0,0.0,0.0
653675535,522402,0,1.001953125,-0.03515625,0.01171875,-0.0234375,0.0,0.0,0.0
653676786,522403,0,1.00390625,-0.03515625,0.01171875,-0.0234375,0.0,0.0,0.0
653678036,522404,0,1.0,-0.03515625,0.015625,-0.01953125,0.0,0.0,0.0
653679287,522405,0,1.00390625,-0.033203125,0.015625,-0.017578125,0.0,0.0,0.0
653680537,522406,0,1.0078125,-0.029296875,0.013671875,-0.015625,0.0,0.0,0.0
653681787,522407,0,1.005859375,-0.033203125,0.013671875,-0.01953125,0.0,0.0,0.0
653683038,522408,0,1.0,-0.033203125,0.013671875,-0.01953125,0.0,0.0,0.0
653684289,522409,0,1.0078125,-0.03515625,0.017578125,-0.017578125,0.0,0.0,0.0
653685539,522410,0,1.00390625,-0.03125,0.013671875,-0.017578125,0.0,0.0,0.0
653686790,522411,0,1.005859375,-0.03515625,0.009765625,-0.025390625,0.0,0.0,0.0
653688042,522412,0,1.00390625,-0.03515625,0.013671875,-0.021484375,0.0,0.0,0.0
653689292,522413,0,1.00390625,-0.03515625,0.009765625,-0.025390625,0.0,0.0,0.0
653690543,522414,0,0.998046875,-0.033203125,0.0078125,-0.025390625,0.0,0.0,0.0
653691794,522415,0,1.0,-0.03515625,0.005859375,-0.029296875,0.0,0.0,0.0
653693044,522416,0,0.998046875,-0.0390625,0.017578125,-0.021484375,0.0,0.0,0.0
653694294,522417,0,0.994140625,-0.0390625,0.00390625,-0.03515625,0.0,0.0,0.0
653695544,522418,0,1.005859375,-0.0390625,0.005859375,-0.033203125,0.0,0.0,0.0
653696796,522419,0,1.015625,-0.037109375,0.01171875,-0.025390625,0.0,0.0,0.0
653698047,522420,0,1.00390625,-0.03515625,0.015625,-0.01953125,0.0,0.0,0.0
653699297,522421,0,1.001953125,-0.041015625,0.01171875,-0.029296875,0.0,0.0,0.0
653700548,522422,0,0.998046875,-0.03515625,0.015625,-0.01953125,0.0,0.0,0.0
653701800,522423,0,1.0,-0.033203125,0.013671875,-0.01953125,0.0,0.0,0.0
653703050,522424,0,1.00390625,-0.037109375,0.0078125,-0.029296875,0.0,0.0,0.0
653704300,522425,0,1.00390625,-0.033203125,0.017578125,-0.015625,0.0,0.0,0.0
653705550,522426,0,1.005859375,-0.037109375,0.017578125,-0.01953125,0.0,0.0,0.0
653706801,522427,0,1.0078125,-0.03515625,0.015625,-0.01953125,0.0,0.0,0.0
653708052,522428,0,1.00390625,-0.037109375,0.009765625,-0.02734375,0.0,0.0,0.0
653709302,522429,0,1.0078125,-0.037109375,0.01171875,-0.025390625,0.0,0.0,0.0
653710553,522430,0,1.005859375,-0.037109375,0.0078125,-0.029296875,0.0,0.0,0.0
653711804,522431,0,1.005859375,-0.037109375,0.013671875,-0.0234375,0.0,0.0,0.0
653713054,522432,0,1.0,-0.03515625,0.015625,-0.01953125,0.0,0.0,0.0
653714305,522433,0,1.00390625,-0.03515625,0.009765625,-0.025390625,0.0,0.0,0.0
653715556,522434,0,1.0,-0.0390625,0.0078125,-0.03125,0.0,0.0,0.0
653716807,522435,0,1.00390625,-0.037109375,0.01171875,-0.025390625,0.0,0.0,0.0
653718058,522436,0,1.00390625,-0.03515625,0.005859375,-0.029296875,0.0,0.0,0.0
653719310,522437,0,1.0,-0.03125,0.009765625,-0.021484375,0.0,0.0,0.0
653720560,522438,0,1.001953125,-0.04296875,0.00390625,-0.0390625,0.0,0.0,0.0
653721810,522439,0,1.001953125,-0.037109375,0.009765625,-0.02734375,0.0,0.0,0.0
653723060,522440,0,0.99609375,-0.0390625,0.009765625,-0.029296875,0.0,0.0,0.0
653724311,522441,0,0.9921875,-0.037109375,0.013671875,-0.0234375,0.0,0.0,0.0
653725561,522442,0,1.00390625,-0.03515625,0.013671875,-0.021484375,0.0,0.0,0.0
653726813,522443,0,1.001953125,-0.037109375,0.005859375,-0.03125,0.0,0.0,0.0
653728063,522444,0,1.001953125,-0.0390625,0.015625,-0.0234375,0.0,0.0,0.0
653729313,522445,0,1.0078125,-0.03515625,0.015625,-0.01953125,0.0,0.0,0.0
653730565,522446,0,0.998046875,-0.0390625,0.0078125,-0.03125,0.0,0.0,0.0
653731816,522447,0,1.00390625,-0.037109375,0.017578125,-0.01953125,0.0,0.0,0.0
653733066,522448,0,1.009765625,-0.03515625,0.01171875,-0.0234375,0.0,0.0,0.0
653734316,522449,0,1.0078125,-0.03515625,0.013671875,-0.021484375,0.0,0.0,0.0
653735567,522450,0,0.998046875,-0.033203125,0.013671875,-0.01953125,0.0,0.0,0.0
653736817,522451,0,1.005859375,-0.033203125,0.015625,-0.017578125,0.0,0.0,0.0
653738069,522452,0,1.0078125,-0.03515625,0.013671875,-0.021484375,0.0,0.0,0.0
653739319,522453,0,1.0078125,-0.03125,0.013671875,-0.017578125,0.0,0.0,0.0
653740570,522454,0,1.005859375,-0.029296875,0.017578125,-0.01171875,0.0,0.0,0.0
653741822,522455,0,1.009765625,-0.033203125,0.017578125,-0.015625,0.0,0.0,0.0
653743072,522456,0,1.005859375,-0.03125,0.017578125,-0.013671875,0.0,0.0,0.0
653744322,522457,0,1.0,-0.03515625,0.01171875,-0.0234375,0.0,0.0,0.0
653745572,522458,0,1.01171875,-0.033203125,0.009765625,-0.0234375,0.0,0.0,0.0
653746823,522459,0,1.005859375,-0.033203125,0.01171875,-0.021484375,0.0,0.0,0.0
653748075,522460,0,0.99609375,-0.033203125,0.009765625,-0.0234375,0.0,0.0,0.0
653749326,522461,0,1.005859375,-0.033203125,0.00390625,-0.029296875,0.0,0.0,0.0
653750576,522462,0,1.0,-0.037109375,0.0078125,-0.029296875,0.0,0.0,0.0
653751827,522463,0,1.009765625,-0.041015625,0.01171875,-0.029296875,0.0,0.0,0.0
653753077,522464,0,1.009765625,-0.0390625,0.005859375,-0.033203125,0.0,0.0,0.0
653754327,522465,0,0.994140625,-0.0390625,0.0078125,-0.03125,0.0,0.0,0.0
653755578,522466,0,0.99609375,-0.03515625,0.0078125,-0.02734375,0.0,0.0,0.0
653756829,522467,0,1.001953125,-0.041015625,0.015625,-0.025390625,0.0,0.0,0.0
653758080,522468,0,1.005859375,-0.041015625,0.0078125,-0.033203125,0.0,0.0,0.0
653759332,522469,0,1.001953125,-0.046875,0.0078125,-0.0390625,0.0,0.0,0.0
653760582,522470,0,1.005859375,-0.0625,-0.005859375,-0.068359375,0.0,0.0,0.0
653761834,522471,0,0.99609375,-0.037109375,0.0,-0.037109375,0.0,0.0,0.0
653763085,522472,0,1.005859375,0.0,0.03125,0.03125,0.0,0.0,0.0
653764335,522473,0,1.01953125,0.005859375,0.03515625,0.041015625,0.0,0.0,0.0
653765586,522474,0,1.009765625,-0.009765625,0.0234375,0.013671875,0.0,0.0,0.0
653766838,522475,0,1.001953125,-0.0390625,0.009765625,-0.029296875,0.0,0.0,0.0
653768088,522476,0,1.0,-0.052734375,0.0,-0.052734375,0.0,0.0,0.0
653769338,522477,0,1.001953125,-0.05078125,-0.001953125,-0.052734375,0.0,0.0,0.0
653770589,522478,0,1.0,-0.044921875,0.0,-0.044921875,0.0,0.0,0.0
653771839,522479,0,1.005859375,-0.037109375,0.0078125,-0.029296875,0.0,0.0,0.0
653773091,522480,0,1.009765625,-0.033203125,0.01171875,-0.021484375,0.0,0.0,0.0
653774341,522481,0,1.001953125,-0.033203125,0.005859375,-0.02734375,0.0,0.0,0.0
653775592,522482,0,1.0078125,-0.037109375,0.009765625,-0.02734375,0.0,0.0,0.0
653776844,522483,0,1.001953125,-0.03125,0.0078125,-0.0234375,0.0,0.0,0.0
653778094,522484,0,1.00390625,-0.037109375,0.01171875,-0.025390625,0.0,0.0,0.0
653779344,522485,0,1.005859375,-0.041015625,0.009765625,-0.03125,0.0,0.0,0.0
653780595,522486,0,1.005859375,-0.03125,0.005859375,-0.025390625,0.0,0.0,0.0
653781846,522487,0,1.00390625,-0.03515625,0.01171875,-0.0234375,0.0,0.0,0.0
653783096,522488,0,1.00390625,-0.03515625,0.017578125,-0.017578125,0.0,0.0,0.0
653784346,522489,0,1.00390625,-0.03125,0.005859375,-0.025390625,0.0,0.0,0.0
653785597,522490,0,0.998046875,-0.03515625,0.013671875,-0.021484375,0.0,0.0,0.0
653786847,522491,0,0.998046875,-0.03515625,0.017578125,-0.017578125,0.0,0.0,0.0
653788097,522492,0,1.00390625,-0.03125,0.01171875,-0.01953125,0.0,0.0,0.0
653789349,522493,0,1.005859375,-0.03515625,0.009765625,-0.025390625,0.0,0.0,0.0
653790599,522494,0,1.0,-0.033203125,0.017578125,-0.015625,0.0,0.0,0.0
653791850,522495,0,1.001953125,-0.037109375,0.009765625,-0.02734375,0.0,0.0,0.0
653793101,522496,0,1.005859375,-0.037109375,0.005859375,-0.03125,0.0,0.0,0.0
653794351,522497,0,1.0,-0.0390625,0.009765625,-0.029296875,0.0,0.0,0.0
653795602,522498,0,1.001953125,-0.041015625,0.005859375,-0.03515625,0.0,0.0,0.0
653796853,522499,0,1.009765625,-0.0390625,0.009765625,-0.029296875,0.0,0.0,0.0
653798103,522500,0,1.001953125,-0.03515625,0.01171875,-0.0234375,0.0,0.0,0.0
653799355,522501,0,1.001953125,-0.037109375,0.013671875,-0.0234375,0.0,0.0,0.0
653800606,522502,0,1.005859375,-0.0390625,0.015625,-0.0234375,0.0,0.0,0.0
653801856,522503,0,1.005859375,-0.041015625,0.01171875,-0.029296875,0.0,0.0,0.0
653803108,522504,0,1.005859375,-0.03515625,0.015625,-0.01953125,0.0,0.0,0.0
653804359,522505,0,1.00390625,-0.03515625,0.01171875,-0.0234375,0.0,0.0,0.0
653805610,522506,0,1.00390625,-0.044921875,0.01171875,-0.033203125,0.0,0.0,0.0
653806860,522507,0,1.005859375,-0.041015625,0.009765625,-0.03125,0.0,0.0,0.0
653808110,522508,0,1.001953125,-0.0390625,0.015625,-0.0234375,0.0,0.0,0.0
653809362,522509,0,0.998046875,-0.03515625,0.015625,-0.01953125,0.0,0.0,0.0
653810614,522510,0,1.0078125,-0.03515625,0.015625,-0.01953125,0.0,0.0,0.0
653811865,522511,0,1.0078125,-0.03515625,0.017578125,-0.017578125,0.0,0.0,0.0
653813115,522512,0,1.005859375,-0.0390625,0.01171875,-0.02734375,0.0,0.0,0.0
653814366,522513,0,1.005859375,-0.037109375,0.009765625,-0.02734375,0.0,0.0,0.0
653815616,522514,0,1.001953125,-0.0390625,0.009765625,-0.029296875,0.0,0.0,0.0
653816867,522515,0,1.005859375,-0.033203125,0.01171875,-0.021484375,0.0,0.0,0.0
653818118,522516,0,1.001953125,-0.037109375,0.009765625,-0.02734375,0.0,0.0,0.0
653819368,522517,0,1.00390625,-0.03515625,0.017578125,-0.017578125,0.0,0.0,0.0
653820619,522518,0,1.0,-0.03125,0.015625,-0.015625,0.0,0.0,0.0
653821871,522519,0,1.005859375,-0.03515625,0.01171875,-0.0234375,0.0,0.0,0.0
653823121,522520,0,1.005859375,-0.037109375,0.009765625,-0.02734375,0.0,0.0,0.0
653824371,522521,0,1.0078125,-0.033203125,0.01171875,-0.021484375,0.0,0.0,0.0
653825623,522522,0,1.005859375,-0.033203125,0.01171875,-0.021484375,0.0,0.0,0.0
653826873,522523,0,0.9921875,-0.0390625,0.017578125,-0.021484375,0.0,0.0,0.0
653828124,522524,0,1.00390625,-0.033203125,0.01171875,-0.021484375,0.0,0.0,0.0
653829376,522525,0,1.00390625,-0.03515625,0.0078125,-0.02734375,0.0,0.0,0.0
653830626,522526,0,1.001953125,-0.03515625,0.01953125,-0.015625,0.0,0.0,0.0
653831877,522527,0,1.001953125,-0.0390625,0.013671875,-0.025390625,0.0,0.0,0.0
653833127,522528,0,1.005859375,-0.037109375,0.01953125,-0.017578125,0.0,0.0,0.0
653834377,522529,0,0.9921875,-0.041015625,0.017578125,-0.0234375,0.0,0.0,0.0
653835629,522530,0,1.001953125,-0.0390625,0.013671875,-0.025390625,0.0,0.0,0.0
653836879,522531,0,1.005859375,-0.0390625,0.0078125,-0.03125,0.0,0.0,0.0
653838130,522532,0,1.001953125,-0.041015625,0.015625,-0.025390625,0.0,0.0,0.0
653839381,522533,0,1.0,-0.037109375,0.015625,-0.021484375,0.0,0.0,0.0
653840631,522534,0,1.00390625,-0.03515625,0.005859375,-0.029296875,0.0,0.0,0.0
653841883,522535,0,1.001953125,-0.037109375,0.015625,-0.021484375,0.0,0.0,0.0
653843134,522536,0,1.005859375,-0.03515625,0.01953125,-0.015625,0.0,0.0,0.0
653844384,522537,0,1.0078125,-0.029296875,0.013671875,-0.015625,0.0,0.0,0.0
653845635,522538,0,1.005859375,-0.03125,0.009765625,-0.021484375,0.0,0.0,0.0
653846887,522539,0,1.005859375,-0.03125,0.01171875,-0.01953125,0.0,0.0,0.0
653848137,522540,0,0.998046875,-0.03515625,0.01171875,-0.0234375,0.0,0.0,0.0
653849388,522541,0,1.0,-0.037109375,0.009765625,-0.02734375,0.0,0.0,0.0
653850639,522542,0,1.01171875,-0.04296875,0.017578125,-0.025390625,0.0,0.0,0.0
653851889,522543,0,1.0,-0.03125,0.0078125,-0.0234375,0.0,0.0,0.0
653853140,522544,0,1.001953125,-0.033203125,0.009765625,-0.0234375,0.0,0.0,0.0
653854392,522545,0,0.99609375,-0.033203125,0.0078125,-0.025390625,0.0,0.0,0.0
653855642,522546,0,1.001953125,-0.03515625,0.013671875,-0.021484375,0.0,0.0,0.0
653856894,522547,0,1.005859375,-0.03515625,0.01171875,-0.0234375,0.0,0.0,0.0
653858145,522548,0,1.00390625,-0.03515625,0.013671875,-0.021484375,0.0,0.0,0.0
653859396,522549,0,1.0,-0.037109375,0.0078125,-0.029296875,0.0,0.0,0.0
653860647,522550,0,1.0,-0.033203125,0.005859375,-0.02734375,0.0,0.0,0.0
653861899,522551,0,1.005859375,-0.03515625,0.009765625,-0.025390625,0.0,0.0,0.0
653863150,522552,0,1.00390625,-0.033203125,0.013671875,-0.01953125,0.0,0.0,0.0
653864400,522553,0,1.001953125,-0.033203125,0.0078125,-0.025390625,0.0,0.0,0.0
653865652,522554,0,1.005859375,-0.029296875,0.005859375,-0.0234375,0.0,0.0,0.0
653866902,522555,0,1.001953125,-0.03515625,0.009765625,-0.025390625,0.0,0.0,0.0
653868152,522556,0,0.998046875,-0.0390625,0.00390625,-0.03515625,0.0,0.0,0.0
653869402,522557,0,1.0078125,-0.037109375,0.015625,-0.021484375,0.0,0.0,0.0
653870653,522558,0,1.005859375,-0.037109375,0.01171875,-0.025390625,0.0,0.0,0.0
653871904,522559,0,1.0,-0.037109375,0.017578125,-0.01953125,0.0,0.0,0.0
653873154,522560,0,1.005859375,-0.03515625,0.017578125,-0.017578125,0.0,0.0,0.0
653874406,522561,0,1.0,-0.033203125,0.015625,-0.017578125,0.0,0.0,0.0
653875657,522562,0,1.00390625,-0.03515625,0.01171875,-0.0234375,0.0,0.0,0.0
653876907,522563,0,1.005859375,-0.037109375,0.013671875,-0.0234375,0.0,0.0,0.0
653878158,522564,0,1.001953125,-0.03515625,0.01171875,-0.0234375,0.0,0.0,0.0
653879408,522565,0,1.0,-0.03515625,0.0078125,-0.02734375,0.0,0.0,0.0
653880659,522566,0,1.01171875,-0.037109375,0.005859375,-0.03125,0.0,0.0,0.0
653881910,522567,0,1.001953125,-0.03125,0.005859375,-0.025390625,0.0,0.0,0.0
653883160,522568,0,1.00390625,-0.033203125,0.015625,-0.017578125,0.0,0.0,0.0
653884410,522569,0,1.0,-0.037109375,0.013671875,-0.0234375,0.0,0.0,0.0
653885662,522570,0,0.9921875,-0.041015625,0.009765625,-0.03125,0.0,0.0,0.0
653886912,522571,0,0.99609375,-0.033203125,0.015625,-0.017578125,0.0,0.0,0.0
653888163,522572,0,1.0,-0.0390625,0.0,-0.0390625,0.0,0.0,0.0
653889413,522573,0,1.005859375,-0.03515625,0.0078125,-0.02734375,0.0,0.0,0.0
653890664,522574,0,1.001953125,-0.037109375,0.00390625,-0.033203125,0.0,0.0,0.0
653891915,522575,0,1.00390625,-0.03515625,0.009765625,-0.025390625,0.0,0.0,0.0
653893167,522576,0,1.0078125,-0.0390625,0.013671875,-0.025390625,0.0,0.0,0.0
653894417,522577,0,1.0078125,-0.037109375,0.005859375,-0.03125,0.0,0.0,0.0
653895668,522578,0,1.005859375,-0.0390625,0.013671875,-0.025390625,0.0,0.0,0.0
653896920,522579,0,1.0,-0.041015625,0.013671875,-0.02734375,0.0,0.0,0.0
653898171,522580,0,0.998046875,-0.03515625,0.009765625,-0.025390625,0.0,0.0,0.0
653899422,522581,0,1.0,-0.03515625,0.009765625,-0.025390625,0.0,0.0,0.0
653900674,522582,0,1.0078125,-0.03515625,0.0078125,-0.02734375,0.0,0.0,0.0
653901924,522583,0,1.001953125,-0.037109375,0.009765625,-0.02734375,0.0,0.0,0.0
653903175,522584,0,1.009765625,-0.03515625,0.01171875,-0.0234375,0.0,0.0,0.0
653904426,522585,0,1.00390625,-0.0390625,0.01171875,-0.02734375,0.0,0.0,0.0
653905677,522586,0,1.005859375,-0.0390625,0.009765625,-0.029296875,0.0,0.0,0.0
653906928,522587,0,1.001953125,-0.03515625,0.013671875,-0.021484375,0.0,0.0,0.0
653908179,522588,0,0.99609375,-0.029296875,0.0078125,-0.021484375,0.0,0.0,0.0
653909431,522589,0,1.001953125,-0.0234375,0.009765625,-0.013671875,0.0,0.0,0.0
653910681,522590,0,1.005859375,-0.02734375,0.021484375,-0.005859375,0.0,0.0,0.0
653911932,522591,0,1.005859375,-0.037109375,-0.041015625,-0.078125,0.0,0.0,0.0
653913182,522592,0,1.00390625,-0.03515625,0.00390625,-0.03125,0.0,0.0,0.0
653914432,522593,0,1.009765625,-0.033203125,0.009765625,-0.0234375,0.0,0.0,0.0
653915684,522594,0,1.0,-0.037109375,0.01171875,-0.025390625,0.0,0.0,0.0
653916934,522595,0,1.001953125,-0.029296875,0.017578125,-0.01171875,0.0,0.0,0.0
653918185,522596,0,1.005859375,-0.03515625,0.017578125,-0.017578125,0.0,0.0,0.0
653919436,522597,0,1.00390625,-0.03125,0.013671875,-0.017578125,0.0,0.0,0.0
653920687,522598,0,1.00390625,-0.03515625,0.01171875,-0.0234375,0.0,0.0,0.0
653921937,522599,0,1.00390625,-0.033203125,0.009765625,-0.0234375,0.0,0.0,0.0
653923187,522600,0,1.009765625,-0.03515625,0.017578125,-0.017578125,0.0,0.0,0.0
653924439,522601,0,1.001953125,-0.025390625,0.017578125,-0.0078125,0.0,0.0,0.0
653925690,522602,0,1.005859375,-0.03515625,0.0078125,-0.02734375,0.0,0.0,0.0
653926940,522603,0,1.001953125,-0.037109375,0.013671875,-0.0234375,0.0,0.0,0.0
653928192,522604,0,1.00390625,-0.03125,0.009765625,-0.021484375,0.0,0.0,0.0
653929443,522605,0,1.0078125,-0.037109375,0.009765625,-0.02734375,0.0,0.0,0.0
653930694,522606,0,1.001953125,-0.037109375,0.013671875,-0.0234375,0.0,0.0,0.0
653931944,522607,0,1.00390625,-0.03515625,0.005859375,-0.029296875,0.0,0.0,0.0
653933194,522608,0,1.0078125,-0.03125,0.013671875,-0.017578125,0.0,0.0,0.0
653934445,522609,0,1.0078125,-0.037109375,0.013671875,-0.0234375,0.0,0.0,0.0
653935697,522610,0,1.001953125,-0.041015625,0.01171875,-0.029296875,0.0,0.0,0.0
653936947,522611,0,1.001953125,-0.033203125,0.005859375,-0.02734375,0.0,0.0,0.0
653938199,522612,0,0.99609375,-0.037109375,0.013671875,-0.0234375,0.0,0.0,0.0
653939449,522613,0,0.998046875,-0.037109375,0.009765625,-0.02734375,0.0,0.0,0.0
653940701,522614,0,0.9921875,-0.037109375,0.017578125,-0.01953125,0.0,0.0,0.0
653941951,522615,0,1.00390625,-0.029296875,0.00390625,-0.025390625,0.0,0.0,0.0
653943202,522616,0,1.00390625,-0.03515625,0.009765625,-0.025390625,0.0,0.0,0.0
653944454,522617,0,0.998046875,-0.037109375,0.013671875,-0.0234375,0.0,0.0,0.0
653945704,522618,0,1.00390625,-0.03125,0.013671875,-0.017578125,0.0,0.0,0.0
653946955,522619,0,0.998046875,-0.033203125,0.01171875,-0.021484375,0.0,0.0,0.0
653948206,522620,0,1.005859375,-0.03125,0.015625,-0.015625,0.0,0.0,0.0
653949457,522621,0,1.00390625,-0.03125,0.01953125,-0.01171875,0.0,0.0,0.0
653950708,522622,0,1.009765625,-0.03125,0.017578125,-0.013671875,0.0,0.0,0.0
653951959,522623,0,1.0078125,-0.029296875,0.017578125,-0.01171875,0.0,0.0,0.0
653953211,522624,0,1.00390625,-0.037109375,0.013671875,-0.0234375,0.0,0.0,0.0
653954463,522625,0,1.00390625,-0.0390625,0.01171875,-0.02734375,0.0,0.0,0.0
653955713,522626,0,1.00390625,-0.0390625,0.01953125,-0.01953125,0.0,0.0,0.0
653956965,522627,0,0.998046875,-0.037109375,0.015625,-0.021484375,0.0,0.0,0.0
653958215,522628,0,1.0,-0.048828125,0.005859375,-0.04296875,0.0,0.0,0.0
653959466,522629,0,1.001953125,-0.037109375,0.015625,-0.021484375,0.0,0.0,0.0
653960716,522630,0,0.998046875,-0.03515625,0.01953125,-0.015625,0.0,0.0,0.0
653961966,522631,0,1.001953125,-0.037109375,0.01953125,-0.017578125,0.0,0.0,0.0
653963216,522632,0,1.0078125,-0.03125,0.01171875,-0.01953125,0.0,0.0,0.0
653964468,522633,0,1.005859375,-0.029296875,0.009765625,-0.01953125,0.0,0.0,0.0
653965719,522634,0,1.0,-0.033203125,0.015625,-0.017578125,0.0,0.0,0.0
653966969,522635,0,0.998046875,-0.03515625,0.009765625,-0.025390625,0.0,0.0,0.0
653968221,522636,0,1.0078125,-0.037109375,0.01171875,-0.025390625,0.0,0.0,0.0
653969471,522637,0,1.00390625,-0.03515625,0.015625,-0.01953125,0.0,0.0,0.0
653970723,522638,0,1.005859375,-0.041015625,0.015625,-0.025390625,0.0,0.0,0.0
653971973,522639,0,1.001953125,-0.0390625,0.0078125,-0.03125,0.0,0.0,0.0
653973225,522640,0,1.00390625,-0.03515625,0.01171875,-0.0234375,0.0,0.0,0.0
653974476,522641,0,0.998046875,-0.037109375,0.015625,-0.021484375,0.0,0.0,0.0
653975727,522642,0,1.00390625,-0.0390625,0.009765625,-0.029296875,0.0,0.0,0.0
653976977,522643,0,1.005859375,-0.0390625,0.013671875,-0.025390625,0.0,0.0,0.0
653978228,522644,0,1.001953125,-0.041015625,0.017578125,-0.0234375,0.0,0.0,0.0
653979479,522645,0,0.998046875,-0.037109375,0.013671875,-0.0234375,0.0,0.0,0.0
653980730,522646,0,0.998046875,-0.033203125,0.009765625,-0.0234375,0.0,0.0,0.0
653981981,522647,0,1.001953125,-0.03125,0.013671875,-0.017578125,0.0,0.0,0.0
653983233,522648,0,0.998046875,-0.037109375,0.01171875,-0.025390625,0.0,0.0,0.0
653984484,522649,0,1.0,-0.03125,0.021484375,-0.009765625,0.0,0.0,0.0
653985734,522650,0,1.013671875,-0.03515625,0.017578125,-0.017578125,0.0,0.0,0.0
653986984,522651,0,1.005859375,-0.041015625,0.001953125,-0.0390625,0.0,0.0,0.0
653988235,522652,0,1.00390625,-0.037109375,0.013671875,-0.0234375,0.0,0.0,0.0
653989486,522653,0,1.00390625,-0.03515625,0.00390625,-0.03125,0.0,0.0,0.0
653990737,522654,0,1.005859375,-0.03515625,0.013671875,-0.021484375,0.0,0.0,0.0
653991987,522655,0,1.009765625,-0.03125,0.017578125,-0.013671875,0.0,0.0,0.0
653993238,522656,0,1.00390625,-0.0390625,0.005859375,-0.033203125,0.0,0.0,0.0
653994489,522657,0,1.00390625,-0.033203125,0.0078125,-0.025390625,0.0,0.0,0.0
653995740,522658,0,1.0078125,-0.037109375,0.015625,-0.021484375,0.0,0.0,0.0
653996992,522659,0,1.0078125,-0.0390625,0.009765625,-0.029296875,0.0,0.0,0.0
653998242,522660,0,0.998046875,-0.037109375,0.013671875,-0.0234375,0.0,0.0,0.0
653999493,522661,0,1.0,-0.0390625,0.0078125,-0.03125,0.0,0.0,0.0
654000744,522662,0,1.001953125,-0.041015625,0.0078125,-0.033203125,0.0,0.0,0.0
654001994,522663,0,1.005859375,-0.037109375,0.00390625,-0.033203125,0.0,0.0,0.0
654003245,522664,0,1.001953125,-0.04296875,0.00390625,-0.0390625,0.0,0.0,0.0
654004497,522665,0,1.0,-0.041015625,0.009765625,-0.03125,0.0,0.0,0.0
654005749,522666,0,1.0078125,-0.0390625,0.013671875,-0.025390625,0.0,0.0,0.0
654006999,522667,0,1.005859375,-0.044921875,0.01171875,-0.033203125,0.0,0.0,0.0
654008250,522668,0,0.998046875,-0.046875,0.005859375,-0.041015625,0.0,0.0,0.0
654009500,522669,0,1.001953125,-0.046875,0.0078125,-0.0390625,0.0,0.0,0.0
654010752,522670,0,1.0,-0.05078125,0.001953125,-0.048828125,0.0,0.0,0.0
654012003,522671,0,0.99609375,-0.048828125,0.0078125,-0.041015625,0.0,0.0,0.0
654013254,522672,0,0.998046875,-0.048828125,0.0,-0.048828125,0.0,0.0,0.0
654014504,522673,0,1.00390625,-0.04296875,0.009765625,-0.033203125,0.0,0.0,0.0
654015756,522674,0,1.005859375,-0.041015625,0.0,-0.041015625,0.0,0.0,0.0
654017006,522675,0,1.01953125,-0.0390625,0.013671875,-0.025390625,0.0,0.0,0.0
654018257,522676,0,1.0078125,-0.03515625,0.0078125,-0.02734375,0.0,0.0,0.0
654019508,522677,0,1.005859375,-0.037109375,0.01171875,-0.025390625,0.0,0.0,0.0
654020759,522678,0,1.01171875,-0.041015625,0.015625,-0.025390625,0.0,0.0,0.0
654022009,522679,0,0.994140625,-0.04296875,0.01171875,-0.03125,0.0,0.0,0.0
654023259,522680,0,1.005859375,-0.044921875,0.005859375,-0.0390625,0.0,0.0,0.0
654024510,522681,0,1.001953125,-0.044921875,0.009765625,-0.03515625,0.0,0.0,0.0
654025762,522682,0,1.005859375,-0.048828125,0.0078125,-0.041015625,0.0,0.0,0.0
654027013,522683,0,1.0,-0.052734375,0.005859375,-0.046875,0.0,0.0,0.0
654028271,522684,0,0.998046875,-0.056640625,0.001953125,-0.0546875,0.0,0.0,0.0
654029522,522685,0,1.0,-0.05859375,-0.001953125,-0.060546875,0.0,0.0,0.0
654030773,522686,0,0.998046875,-0.056640625,-0.00390625,-0.060546875,0.0,0.0,0.0
654032025,522687,0,0.99609375,-0.0546875,0.00390625,-0.05078125,0.0,0.0,0.0
654033277,522688,0,0.998046875,-0.046875,0.005859375,-0.041015625,0.0,0.0,0.0
654034528,522689,0,1.00390625,-0.04296875,0.013671875,-0.029296875,0.0,0.0,0.0
654035779,522690,0,1.001953125,-0.04296875,0.015625,-0.02734375,0.0,0.0,0.0
654037031,522691,0,0.99609375,-0.0390625,0.00390625,-0.03515625,0.0,0.0,0.0
654038283,522692,0,1.005859375,-0.044921875,0.005859375,-0.0390625,0.0,0.0,0.0
654039535,522693,0,1.0078125,-0.05078125,0.009765625,-0.041015625,0.0,0.0,0.0
654040786,522694,0,1.001953125,-0.048828125,-0.001953125,-0.05078125,0.0,0.0,0.0
654042036,522695,0,0.998046875,-0.044921875,0.0078125,-0.037109375,0.0,0.0,0.0
654043287,522696,0,1.001953125,-0.0390625,0.005859375,-0.033203125,0.0,0.0,0.0
654044537,522697,0,1.0078125,-0.041015625,0.009765625,-0.03125,0.0,0.0,0.0
654045787,522698,0,1.001953125,-0.046875,0.009765625,-0.037109375,0.0,0.0,0.0
654047038,522699,0,1.0,-0.04296875,0.005859375,-0.037109375,0.0,0.0,0.0
654048289,522700,0,1.001953125,-0.041015625,0.017578125,-0.0234375,0.0,0.0,0.0
654049539,522701,0,1.01171875,-0.041015625,0.01171875,-0.029296875,0.0,0.0,0.0
654050790,522702,0,0.998046875,-0.041015625,0.009765625,-0.03125,0.0,0.0,0.0
654052042,522703,0,1.005859375,-0.041015625,0.009765625,-0.03125,0.0,0.0,0.0
654053292,522704,0,1.0078125,-0.0390625,0.0078125,-0.03125,0.0,0.0,0.0
654054543,522705,0,1.005859375,-0.046875,0.015625,-0.03125,0.0,0.0,0.0
654055794,522706,0,0.99609375,-0.05078125,0.00390625,-0.046875,0.0,0.0,0.0
654057044,522707,0,1.001953125,-0.0546875,0.005859375,-0.048828125,0.0,0.0,0.0
654058294,522708,0,1.00390625,-0.056640625,0.001953125,-0.0546875,0.0,0.0,0.0
654059544,522709,0,1.005859375,-0.05859375,0.0078125,-0.05078125,0.0,0.0,0.0
654060795,522710,0,1.009765625,-0.072265625,0.00390625,-0.068359375,0.0,0.0,0.0
654062047,522711,0,1.0234375,-0.08984375,0.013671875,-0.076171875,0.0,0.0,0.0
654063297,522712,0,1.009765625,-0.087890625,-0.017578125,-0.10546875,0.0,0.0,0.0
654064548,522713,0,1.001953125,-0.08984375,0.00390625,-0.0859375,0.0,0.0,0.0
654065800,522714,0,1.00390625,-0.087890625,-0.005859375,-0.09375,0.0,0.0,0.0
654067050,522715,0,1.0234375,-0.095703125,0.0,-0.095703125,0.0,0.0,0.0
654068300,522716,0,1.01171875,-0.087890625,-0.009765625,-0.09765625,0.0,0.0,0.0
654069550,522717,0,0.99609375,-0.08984375,0.00390625,-0.0859375,0.0,0.0,0.0
654070801,522718,0,1.001953125,-0.087890625,-0.00390625,-0.091796875,0.0,0.0,0.0
654072052,522719,0,1.0078125,-0.0859375,-0.009765625,-0.095703125,0.0,0.0,0.0
654073302,522720,0,1.005859375,-0.083984375,-0.00390625,-0.087890625,0.0,0.0,0.0
654074553,522721,0,1.005859375,-0.072265625,-0.001953125,-0.07421875,0.0,0.0,0.0
654075804,522722,0,1.0,-0.09765625,-0.0078125,-0.10546875,0.0,0.0,0.0
654077054,522723,0,0.9765625,-0.2421875,-0.0390625,-0.28125,0.0,0.0,0.0
654078305,522724,0,0.978515625,-0.744140625,-0.224609375,-0.96875,0.0,0.0,0.0
654079556,522725,0,1.12890625,-2.908203125,-1.375,-4.283203125,0.0,0.0,0.0
654080807,522726,0,0.849609375,-2.10546875,-0.205078125,-2.310546875,0.0,0.0,0.0
654082058,522727,0,0.81640625,-1.376953125,-0.685546875,-2.0625,0.0,0.0,0.0
654083310,522728,0,1.1171875,-0.861328125,-0.169921875,-1.03125,0.0,0.0,0.0
654084560,522729,0,1.009765625,-0.400390625,-0.318359375,-0.71875,0.0,0.0,0.0
654085810,522730,0,0.9609375,-0.005859375,0.0078125,0.001953125,0.0,0.0,0.0
654087060,522731,0,0.953125,0.314453125,-0.01171875,0.302734375,0.0,0.0,0.0
654088311,522732,0,1.134765625,0.51953125,0.08984375,0.609375,0.0,0.0,0.0
654089561,522733,0,0.982421875,0.2265625,0.083984375,0.310546875,0.0,0.0,0.0
654090813,522734,0,0.85546875,-0.755859375,-0.173828125,-0.9296875,0.0,0.0,0.0
654092063,522735,0,0.98828125,-2.474609375,-0.68359375,-3.158203125,0.0,0.0,0.0
654093313,522736,0,0.890625,-4.0,-1.673828125,-5.673828125,0.0,0.0,0.0
654094565,522737,0,0.623046875,-4.0,-1.55078125,-5.55078125,0.0,0.0,0.0
654095816,522738,0,0.39453125,-4.0,-3.671875,-7.671875,0.0,0.0,0.0
654097066,522739,0,1.64453125,-3.923828125,-2.17578125,-6.099609375,0.0,0.0,0.0
654098316,522740,0,0.7421875,-1.3046875,-1.998046875,-3.302734375,0.0,0.0,0.0
654099567,522741,0,0.927734375,0.5078125,-1.181640625,-0.673828125,0.0,0.0,0.0
654100817,522742,0,1.11328125,2.494140625,-0.59765625,1.896484375,0.0,0.0,0.0
654102069,522743,0,1.482421875,3.904296875,0.09375,3.998046875,0.0,0.0,0.0
654103319,522744,0,0.939453125,3.998046875,0.849609375,4.84765625,0.0,0.0,0.0
654104570,522745,0,0.904296875,3.998046875,1.345703125,5.34375,0.0,0.0,0.0
654105822,522746,0,1.3671875,3.998046875,1.75,5.748046875,0.0,0.0,0.0
654107072,522747,0,1.333984375,3.998046875,1.9921875,5.990234375,0.0,0.0,0.0
654108322,522748,0,1.072265625,3.998046875,1.953125,5.951171875,0.0,0.0,0.0
654109572,522749,0,1.201171875,3.998046875,1.810546875,5.80859375,0.0,0.0,0.0
654110823,522750,0,1.205078125,3.998046875,1.484375,5.482421875,0.0,0.0,0.0
654112075,522751,0,1.044921875,3.2734375,1.037109375,4.310546875,0.0,0.0,0.0
654113326,522752,0,1.044921875,2.076171875,0.564453125,2.640625,0.0,0.0,0.0
654114576,522753,0,1.0390625,0.830078125,0.125,0.955078125,0.0,0.0,0.0
654115827,522754,0,1.00390625,-0.34765625,-0.333984375,-0.681640625,0.0,0.0,0.0
654117077,522755,0,1.0703125,-1.408203125,-0.658203125,-2.06640625,0.0,0.0,0.0
654118327,522756,0,0.89453125,-2.291015625,-0.890625,-3.181640625,0.0,0.0,0.0
654119578,522757,0,0.900390625,-2.9609375,-1.056640625,-4.017578125,0.0,0.0,0.0
654120829,522758,0,0.875,-3.4296875,-1.125,-4.5546875,0.0,0.0,0.0
654122080,522759,0,0.833984375,-3.5625,-1.1328125,-4.6953125,0.0,0.0,0.0
654123332,522760,0,0.884765625,-3.435546875,-1.142578125,-4.578125,0.0,0.0,0.0
654124582,522761,0,0.939453125,-3.076171875,-1.009765625,-4.0859375,0.0,0.0,0.0
654125834,522762,0,0.9296875,-2.513671875,-0.708984375,-3.22265625,0.0,0.0,0.0
654127085,522763,0,0.96484375,-1.833984375,-0.466796875,-2.30078125,0.0,0.0,0.0
654128335,522764,0,1.00390625,-0.314453125,-0.234375,-0.548828125,0.0,0.0,0.0
654129586,522765,0,1.005859375,0.404296875,-0.009765625,0.39453125,0.0,0.0,0.0
654130838,522766,0,1.0625,1.04296875,0.224609375,1.267578125,0.0,0.0,0.0
654132088,522767,0,1.056640625,1.55078125,0.423828125,1.974609375,0.0,0.0,0.0
654133338,522768,0,1.087890625,1.91796875,0.57421875,2.4921875,0.0,0.0,0.0
654134589,522769,0,1.103515625,2.111328125,0.66796875,2.779296875,0.0,0.0,0.0
654135839,522770,0,1.064453125,2.142578125,0.7265625,2.869140625,0.0,0.0,0.0
654137091,522771,0,1.0625,2.021484375,0.69921875,2.720703125,0.0,0.0,0.0
654138341,522772,0,1.072265625,1.7734375,0.638671875,2.412109375,0.0,0.0,0.0
654139592,522773,0,1.052734375,1.41796875,0.5078125,1.92578125,0.0,0.0,0.0
654140844,522774,0,1.09375,1.001953125,0.3671875,1.369140625,0.0,0.0,0.0
654142094,522775,0,1.060546875,0.544921875,0.1953125,0.740234375,0.0,0.0,0.0
654143344,522776,0,1.021484375,0.068359375,0.0234375,0.091796875,0.0,0.0,0.0
654144595,522777,0,0.998046875,-0.353515625,-0.115234375,-0.46875,0.0,0.0,0.0
654145846,522778,0,0.9765625,-0.7421875,-0.216796875,-0.958984375,0.0,0.0,0.0
654147096,522779,0,0.943359375,-1.05078125,-0.31640625,-1.3671875,0.0,0.0,0.0
654148346,522780,0,0.9609375,-1.263671875,-0.375,-1.638671875,0.0,0.0,0.0
654149597,522781,0,0.958984375,-1.376953125,-0.42578125,-1.802734375,0.0,0.0,0.0
654150847,522782,0,1.03515625,-1.337890625,-0.41015625,-1.748046875,0.0,0.0,0.0
654152097,522783,0,0.994140625,-1.232421875,-0.396484375,-1.62890625,0.0,0.0,0.0
654153349,522784,0,1.01171875,-1.078125,-0.337890625,-1.416015625,0.0,0.0,0.0
654154599,522785,0,0.970703125,-0.82421875,-0.25390625,-1.078125,0.0,0.0,0.0
654155850,522786,0,0.9765625,-0.544921875,-0.17578125,-0.720703125,0.0,0.0,0.0
654157101,522787,0,0.990234375,-0.23828125,-0.076171875,-0.314453125,0.0,0.0,0.0
654158351,522788,0,1.0,0.044921875,0.009765625,0.0546875,0.0,0.0,0.0
654159602,522789,0,1.04296875,0.306640625,0.095703125,0.40234375,0.0,0.0,0.0
654160853,522790,0,1.05078125,0.525390625,0.17578125,0.701171875,0.0,0.0,0.0
654162103,522791,0,1.0390625,0.69140625,0.228515625,0.919921875,0.0,0.0,0.0
654163355,522792,0,1.0390625,0.7890625,0.283203125,1.072265625,0.0,0.0,0.0
654164606,522793,0,1.04296875,0.8125,0.28515625,1.09765625,0.0,0.0,0.0
654165856,522794,0,1.048828125,0.791015625,0.302734375,1.09375,0.0,0.0,0.0
654167108,522795,0,1.044921875,0.705078125,0.26953125,0.974609375,0.0,0.0,0.0
654168359,522796,0,1.03125,0.578125,0.21875,0.796875,0.0,0.0,0.0
654169610,522797,0,1.044921875,0.412109375,0.158203125,0.5703125,0.0,0.0,0.0
654170860,522798,0,1.03515625,0.228515625,0.1015625,0.330078125,0.0,0.0,0.0
654172110,522799,0,1.009765625,0.048828125,0.044921875,0.09375,0.0,0.0,0.0
654173362,522800,0,1.001953125,-0.123046875,-0.017578125,-0.140625,0.0,0.0,0.0
654174614,522801,0,0.984375,-0.27734375,-0.0703125,-0.34765625,0.0,0.0,0.0
654175865,522802,0,0.984375,-0.396484375,-0.107421875,-0.50390625,0.0,0.0,0.0
654177115,522803,0,0.994140625,-0.48046875,-0.146484375,-0.626953125,0.0,0.0,0.0
654178366,522804,0,0.994140625,-0.51953125,-0.158203125,-0.677734375,0.0,0.0,0.0
654179616,522805,0,0.9921875,-0.52734375,-0.13671875,-0.6640625,0.0,0.0,0.0
654180867,522806,0,0.98828125,-0.4921875,-0.11328125,-0.60546875,0.0,0.0,0.0
654182118,522807,0,0.98828125,-0.3203125,-0.0859375,-0.40625,0.0,0.0,0.0
654183368,522808,0,0.98828125,-0.212890625,-0.06640625,-0.279296875,0.0,0.0,0.0
654184619,522809,0,1.005859375,-0.107421875,-0.0234375,-0.130859375,0.0,0.0,0.0
654185871,522810,0,1.001953125,0.00390625,0.015625,0.01953125,0.0,0.0,0.0
654187121,522811,0,1.00390625,0.09765625,0.04296875,0.140625,0.0,0.0,0.0
654188371,522812,0,1.021484375,0.18359375,0.07421875,0.2578125,0.0,0.0,0.0
654189623,522813,0,1.015625,0.2421875,0.09765625,0.33984375,0.0,0.0,0.0
654190873,522814,0,0.998046875,0.28125,0.115234375,0.396484375,0.0,0.0,0.0
654192124,522815,0,1.01171875,0.28515625,0.119140625,0.404296875,0.0,0.0,0.0
654193376,522816,0,1.03515625,0.267578125,0.126953125,0.39453125,0.0,0.0,0.0
654194626,522817,0,1.03125,0.2265625,0.107421875,0.333984375,0.0,0.0,0.0
654195877,522818,0,1.009765625,0.181640625,0.080078125,0.26171875,0.0,0.0,0.0
654197127,522819,0,1.009765625,0.115234375,0.060546875,0.17578125,0.0,0.0,0.0
654198377,522820,0,1.0078125,0.0390625,0.033203125,0.072265625,0.0,0.0,0.0
654199629,522821,0,1.0,-0.02734375,0.01171875,-0.015625,0.0,0.0,0.0
654200879,522822,0,0.994140625,-0.09765625,0.001953125,-0.095703125,0.0,0.0,0.0
654202130,522823,0,0.99609375,-0.1484375,-0.029296875,-0.177734375,0.0,0.0,0.0
654203381,522824,0,0.998046875,-0.203125,-0.04296875,-0.24609375,0.0,0.0,0.0
654204631,522825,0,0.9921875,-0.23046875,-0.05078125,-0.28125,0.0,0.0,0.0
654205883,522826,0,0.99609375,-0.23046875,-0.0625,-0.29296875,0.0,0.0,0.0
654207134,522827,0,0.990234375,-0.234375,-0.05859375,-0.29296875,0.0,0.0,0.0
654208384,522828,0,0.98828125,-0.212890625,-0.0546875,-0.267578125,0.0,0.0,0.0
654209635,522829,0,0.998046875,-0.18359375,-0.0390625,-0.22265625,0.0,0.0,0.0
654210887,522830,0,1.009765625,-0.146484375,-0.02734375,-0.173828125,0.0,0.0,0.0
654212137,522831,0,1.005859375,-0.103515625,-0.009765625,-0.11328125,0.0,0.0,0.0
654213388,522832,0,1.001953125,-0.0546875,-0.00390625,-0.05859375,0.0,0.0,0.0
654214639,522833,0,1.005859375,-0.017578125,0.013671875,-0.00390625,0.0,0.0,0.0
654215889,522834,0,1.001953125,0.017578125,0.0234375,0.041015625,0.0,0.0,0.0
654217140,522835,0,1.00390625,0.056640625,0.03125,0.087890625,0.0,0.0,0.0
654218392,522836,0,1.009765625,0.07421875,0.048828125,0.123046875,0.0,0.0,0.0
654219642,522837,0,1.0078125,0.09375,0.044921875,0.138671875,0.0,0.0,0.0
654220894,522838,0,1.013671875,0.091796875,0.0546875,0.146484375,0.0,0.0,0.0
654222145,522839,0,1.0078125,0.08984375,0.056640625,0.146484375,0.0,0.0,0.0
654223396,522840,0,1.015625,0.07421875,0.041015625,0.115234375,0.0,0.0,0.0
654224647,522841,0,1.009765625,0.052734375,0.037109375,0.08984375,0.0,0.0,0.0
654225899,522842,0,0.998046875,0.02734375,0.03515625,0.0625,0.0,0.0,0.0
654227150,522843,0,1.0078125,-0.00390625,0.029296875,0.025390625,0.0,0.0,0.0
654228400,522844,0,1.013671875,-0.0234375,0.01171875,-0.01171875,0.0,0.0,0.0
654229652,522845,0,1.009765625,-0.052734375,0.0078125,-0.044921875,0.0,0.0,0.0
654230902,522846,0,1.009765625,-0.078125,0.0078125,-0.0703125,0.0,0.0,0.0
654232152,522847,0,1.025390625,-0.080078125,-0.00390625,-0.083984375,0.0,0.0,0.0
654233402,522848,0,1.001953125,-0.095703125,-0.00390625,-0.099609375,0.0,0.0,0.0
654234653,522849,0,0.99609375,-0.087890625,-0.001953125,-0.08984375,0.0,0.0,0.0
654235904,522850,0,0.9921875,-0.08203125,0.001953125,-0.080078125,0.0,0.0,0.0
654237154,522851,0,1.00390625,-0.068359375,-0.00390625,-0.072265625,0.0,0.0,0.0
654238406,522852,0,1.0,-0.052734375,0.00390625,-0.048828125,0.0,0.0,0.0
654239657,522853,0,1.005859375,-0.037109375,0.00390625,-0.033203125,0.0,0.0,0.0
654240907,522854,0,1.001953125,-0.025390625,0.013671875,-0.01171875,0.0,0.0,0.0
654242158,522855,0,1.0,-0.01171875,0.021484375,0.009765625,0.0,0.0,0.0
654243408,522856,0,0.998046875,0.001953125,0.0234375,0.025390625,0.0,0.0,0.0
654244659,522857,0,1.0078125,0.001953125,0.03125,0.033203125,0.0,0.0,0.0
654245910,522858,0,1.005859375,0.013671875,0.03125,0.044921875,0.0,0.0,0.0
654247160,522859,0,1.009765625,0.01953125,0.025390625,0.044921875,0.0,0.0,0.0
654248410,522860,0,1.009765625,0.013671875,0.03125,0.044921875,0.0,0.0,0.0
654249662,522861,0,1.005859375,0.01171875,0.03125,0.04296875,0.0,0.0,0.0
654250912,522862,0,1.005859375,0.001953125,0.025390625,0.02734375,0.0,0.0,-3.106741056984404e+35
654253413,522864,0,1.001953125,-0.017578125,0.0234375,0.005859375,0.0,0.0,0.0
654254664,522865,0,0.98828125,-0.015625,0.01171875,-0.00390625,0.0,0.0,0.0
654255915,522866,0,1.005859375,-0.0390625,0.00390625,-0.03515625,0.0,0.0,0.0
654257167,522867,0,1.00390625,-0.046875,0.01171875,-0.03515625,0.0,0.0,0.0
654258417,522868,0,1.005859375,-0.056640625,-0.00390625,-0.060546875,0.0,0.0,0.0
654259668,522869,0,1.001953125,-0.0625,-0.005859375,-0.068359375,0.0,0.0,0.0
654260920,522870,0,0.99609375,-0.078125,-0.005859375,-0.083984375,0.0,0.0,0.0
654262171,522871,0,0.994140625,-0.072265625,-0.001953125,-0.07421875,0.0,0.0,0.0
654263422,522872,0,0.99609375,-0.0703125,0.001953125,-0.068359375,0.0,0.0,0.0
654264674,522873,0,1.005859375,-0.0703125,-0.00390625,-0.07421875,0.0,0.0,0.0
654265924,522874,0,1.005859375,-0.0625,-0.001953125,-0.064453125,0.0,0.0,0.0
654267175,522875,0,1.0,-0.056640625,-0.001953125,-0.05859375,0.0,0.0,0.0
654268426,522876,0,1.001953125,-0.046875,0.001953125,-0.044921875,0.0,0.0,0.0
654269677,522877,0,1.001953125,-0.0390625,0.00390625,-0.03515625,0.0,0.0,0.0
654270928,522878,0,0.998046875,-0.03515625,0.005859375,-0.029296875,0.0,0.0,0.0
654272179,522879,0,1.001953125,-0.03125,0.01171875,-0.01953125,0.0,0.0,0.0
654273431,522880,0,1.001953125,-0.0234375,0.00390625,-0.01953125,0.0,0.0,0.0
654274681,522881,0,1.009765625,-0.021484375,0.017578125,-0.00390625,0.0,0.0,0.0
654275932,522882,0,1.005859375,-0.015625,0.005859375,-0.009765625,0.0,0.0,0.0
654277182,522883,0,1.005859375,-0.017578125,0.005859375,-0.01171875,0.0,0.0,0.0
654278432,522884,0,1.00390625,-0.021484375,0.0078125,-0.013671875,0.0,0.0,0.0
654279684,522885,0,1.005859375,-0.021484375,0.009765625,-0.01171875,0.0,0.0,0.0
654280934,522886,0,0.99609375,-0.029296875,0.005859375,-0.0234375,0.0,0.0,0.0
654282185,522887,0,1.00390625,-0.02734375,0.0078125,-0.01953125,0.0,0.0,0.0
654283436,522888,0,1.001953125,-0.03125,0.01171875,-0.01953125,0.0,0.0,0.0
654284687,522889,0,1.001953125,-0.037109375,0.0,-0.037109375,0.0,0.0,0.0
654285937,522890,0,1.0,-0.0390625,0.00390625,-0.03515625,0.0,0.0,0.0
654287187,522891,0,1.005859375,-0.041015625,-0.001953125,-0.04296875,0.0,0.0,0.0
654288439,522892,0,1.001953125,-0.041015625,-0.00390625,-0.044921875,0.0,0.0,0.0
654289690,522893,0,1.009765625,-0.037109375,0.001953125,-0.03515625,0.0,0.0,0.0
654290940,522894,0,1.0078125,-0.033203125,0.009765625,-0.0234375,0.0,0.0,0.0
654292192,522895,0,1.0078125,-0.033203125,0.01171875,-0.021484375,0.0,0.0,0.0
654293443,522896,0,1.0078125,-0.033203125,0.0078125,-0.025390625,0.0,0.0,0.0
654294694,522897,0,1.00390625,-0.025390625,0.013671875,-0.01171875,0.0,0.0,0.0
654295944,522898,0,1.005859375,-0.025390625,0.015625,-0.009765625,0.0,0.0,0.0
654297194,522899,0,1.001953125,-0.015625,0.013671875,-0.001953125,0.0,0.0,0.0
654298445,522900,0,1.0,-0.017578125,0.009765625,-0.0078125,0.0,0.0,0.0
654299697,522901,0,1.005859375,-0.01953125,0.015625,-0.00390625,0.0,0.0,0.0
654300947,522902,0,1.00390625,-0.013671875,0.015625,0.001953125,0.0,0.0,0.0
654302199,522903,0,1.009765625,-0.017578125,0.013671875,-0.00390625,0.0,0.0,0.0
654303449,522904,0,1.00390625,-0.015625,0.015625,0.0,0.0,0.0,0.0
654304701,522905,0,1.013671875,-0.021484375,0.015625,-0.005859375,0.0,0.0,0.0
654305951,522906,0,1.005859375,-0.01953125,0.021484375,0.001953125,0.0,0.0,0.0
654307202,522907,0,1.00390625,-0.013671875,0.0078125,-0.005859375,0.0,0.0,0.0
654308454,522908,0,1.01953125,-0.01953125,0.013671875,-0.005859375,0.0,0.0,0.0
654309704,522909,0,1.009765625,-0.029296875,0.0078125,-0.021484375,0.0,0.0,0.0
654310955,522910,0,1.005859375,-0.02734375,0.00390625,-0.0234375,0.0,0.0,0.0
654312206,522911,0,1.0078125,-0.029296875,0.01171875,-0.017578125,0.0,0.0,0.0
654313457,522912,0,1.00390625,-0.03125,0.021484375,-0.009765625,0.0,0.0,0.0
654314708,522913,0,1.001953125,-0.037109375,0.021484375,-0.015625,0.0,0.0,0.0
654315959,522914,0,1.001953125,-0.041015625,0.01953125,-0.021484375,0.0,0.0,0.0
654317211,522915,0,0.99609375,-0.041015625,0.0078125,-0.033203125,0.0,0.0,0.0
654318463,522916,0,1.001953125,-0.041015625,0.009765625,-0.03125,0.0,0.0,0.0
654319713,522917,0,0.998046875,-0.0390625,0.01171875,-0.02734375,0.0,0.0,0.0
654320965,522918,0,1.00390625,-0.03515625,0.009765625,-0.025390625,0.0,0.0,0.0
654322215,522919,0,1.005859375,-0.037109375,0.013671875,-0.0234375,0.0,0.0,0.0
654323466,522920,0,1.00390625,-0.037109375,0.01171875,-0.025390625,0.0,0.0,0.0
654324716,522921,0,1.005859375,-0.041015625,0.01171875,-0.029296875,0.0,0.0,0.0
654325966,522922,0,1.0,-0.0390625,0.015625,-0.0234375,0.0,0.0,0.0
654327216,522923,0,1.0,-0.03515625,0.013671875,-0.021484375,0.0,0.0,0.0
654328468,522924,0,1.005859375,-0.037109375,0.013671875,-0.0234375,0.0,0.0,0.0
654329719,522925,0,1.001953125,-0.0390625,0.015625,-0.0234375,0.0,0.0,0.0
654330969,522926,0,1.0078125,-0.0390625,0.0078125,-0.03125,0.0,0.0,0.0
654332221,522927,0,1.00390625,-0.037109375,0.01953125,-0.017578125,0.0,0.0,0.0
654333471,522928,0,0.99609375,-0.037109375,0.013671875,-0.0234375,0.0,0.0,0.0
654334723,522929,0,1.013671875,-0.04296875,0.005859375,-0.037109375,0.0,0.0,0.0
654335973,522930,0,1.005859375,-0.04296875,0.01171875,-0.03125,0.0,0.0,0.0
654337225,522931,0,1.001953125,-0.0390625,0.0078125,-0.03125,0.0,0.0,0.0
654338476,522932,0,1.0,-0.0390625,0.013671875,-0.025390625,0.0,0.0,0.0
654339727,522933,0,0.998046875,-0.0390625,0.009765625,-0.029296875,0.0,0.0,0.0
654340977,522934,0,0.99609375,-0.041015625,0.009765625,-0.03125,0.0,0.0,0.0
654342228,522935,0,1.0,-0.0390625,0.01171875,-0.02734375,0.0,0.0,0.0
654343479,522936,0,1.001953125,-0.0390625,0.013671875,-0.025390625,0.0,0.0,0.0
654344730,522937,0,1.005859375,-0.03515625,0.005859375,-0.029296875,0.0,0.0,0.0
654345981,522938,0,0.998046875,-0.037109375,0.0,-0.037109375,0.0,0.0,0.0
654347233,522939,0,1.001953125,-0.03515625,0.00390625,-0.03125,0.0,0.0,0.0
654348484,522940,0,1.00390625,-0.03515625,0.00390625,-0.03125,0.0,0.0,0.0
654349734,522941,0,1.005859375,-0.033203125,0.001953125,-0.03125,0.0,0.0,0.0
654350984,522942,0,1.001953125,-0.03125,0.00390625,-0.02734375,0.0,0.0,0.0
654352235,522943,0,1.005859375,-0.029296875,0.009765625,-0.01953125,0.0,0.0,0.0
654353486,522944,0,1.0078125,-0.029296875,0.0078125,-0.021484375,0.0,0.0,0.0
654354737,522945,0,1.0078125,-0.029296875,0.009765625,-0.01953125,0.0,0.0,0.0
654355987,522946,0,1.001953125,-0.02734375,0.013671875,-0.013671875,0.0,0.0,0.0
654357238,522947,0,1.005859375,-0.02734375,0.009765625,-0.017578125,0.0,0.0,0.0
654358489,522948,0,1.005859375,-0.025390625,0.015625,-0.009765625,0.0,0.0,0.0
654359740,522949,0,1.0,-0.029296875,0.021484375,-0.0078125,0.0,0.0,0.0
654360992,522950,0,1.009765625,-0.02734375,0.013671875,-0.013671875,0.0,0.0,0.0
654362242,522951,0,0.998046875,-0.0234375,0.013671875,-0.009765625,0.0,0.0,0.0
654363493,522952,0,0.99609375,-0.0234375,0.0078125,-0.015625,0.0,0.0,0.0
654364744,522953,0,1.00390625,-0.0234375,0.00390625,-0.01953125,0.0,0.0,0.0
654365994,522954,0,1.001953125,-0.01953125,0.015625,-0.00390625,0.0,0.0,0.0
654367245,522955,0,1.001953125,-0.021484375,0.015625,-0.005859375,0.0,0.0,0.0
654368497,522956,0,1.00390625,-0.025390625,0.009765625,-0.015625,0.0,0.0,0.0
654369749,522957,0,1.0,-0.025390625,0.017578125,-0.0078125,0.0,0.0,0.0
654370999,522958,0,1.005859375,-0.02734375,0.0078125,-0.01953125,0.0,0.0,0.0
654372250,522959,0,1.00390625,-0.02734375,0.0078125,-0.01953125,0.0,0.0,0.0
654373500,522960,0,1.0078125,-0.0234375,0.013671875,-0.009765625,0.0,0.0,0.0
654374752,522961,0,1.00390625,-0.025390625,0.015625,-0.009765625,0.0,0.0,0.0
654376003,522962,0,1.00390625,-0.02734375,0.017578125,-0.009765625,0.0,0.0,0.0
654377254,522963,0,1.0078125,-0.0234375,0.013671875,-0.009765625,0.0,0.0,0.0
654378504,522964,0,1.0,-0.025390625,0.009765625,-0.015625,0.0,0.0,0.0
654379756,522965,0,1.0078125,-0.029296875,0.013671875,-0.015625,0.0,0.0,0.0
654381006,522966,0,1.00390625,-0.029296875,0.015625,-0.013671875,0.0,0.0,0.0
654382257,522967,0,1.0078125,-0.025390625,0.015625,-0.009765625,0.0,0.0,0.0
654383508,522968,0,1.005859375,-0.02734375,0.017578125,-0.009765625,0.0,0.0,0.0
654384759,522969,0,1.00390625,-0.033203125,0.013671875,-0.01953125,0.0,0.0,0.0
654386009,522970,0,1.0078125,-0.033203125,0.01171875,-0.021484375,0.0,0.0,0.0
654387259,522971,0,1.005859375,-0.03125,0.015625,-0.015625,0.0,0.0,0.0
654388510,522972,0,1.00390625,-0.03515625,0.005859375,-0.029296875,0.0,0.0,0.0
654389762,522973,0,1.005859375,-0.037109375,0.015625,-0.021484375,0.0,0.0,0.0
654391013,522974,0,1.0,-0.03125,0.01953125,-0.01171875,0.0,0.0,0.0
654392271,522975,0,1.01953125,-0.029296875,0.0078125,-0.021484375,0.0,0.0,0.0
654393522,522976,0,1.005859375,-0.0390625,0.009765625,-0.029296875,0.0,0.0,0.0
654394773,522977,0,1.001953125,-0.033203125,0.00390625,-0.029296875,0.0,0.0,0.0
654396025,522978,0,1.01171875,-0.0390625,0.005859375,-0.033203125,0.0,0.0,0.0
654397277,522979,0,0.99609375,-0.041015625,0.01171875,-0.029296875,0.0,0.0,0.0
654398528,522980,0,1.001953125,-0.0390625,0.01171875,-0.02734375,0.0,0.0,0.0
654399779,522981,0,0.998046875,-0.037109375,0.00390625,-0.033203125,0.0,0.0,0.0
654401031,522982,0,1.005859375,-0.041015625,0.005859375,-0.03515625,0.0,0.0,0.0
654402283,522983,0,1.005859375,-0.037109375,0.013671875,-0.0234375,0.0,0.0,0.0
654403535,522984,0,1.001953125,-0.0390625,0.009765625,-0.029296875,0.0,0.0,0.0
654404786,522985,0,1.0078125,-0.037109375,0.005859375,-0.03125,0.0,0.0,0.0
654406036,522986,0,1.0078125,-0.04296875,0.0078125,-0.03515625,0.0,0.0,0.0
654407287,522987,0,1.001953125,-0.041015625,0.005859375,-0.03515625,0.0,0.0,0.0
654408537,522988,0,1.0,-0.03515625,0.0078125,-0.02734375,0.0,0.0,0.0
654409787,522989,0,1.001953125,-0.033203125,0.0078125,-0.025390625,0.0,0.0,0.0
654411038,522990,0,1.005859375,-0.037109375,0.0078125,-0.029296875,0.0,0.0,0.0
654412289,522991,0,0.998046875,-0.037109375,0.009765625,-0.02734375,0.0,0.0,0.0
654413539,522992,0,1.00390625,-0.037109375,0.001953125,-0.03515625,0.0,0.0,0.0
654414790,522993,0,1.005859375,-0.037109375,0.0078125,-0.029296875,0.0,0.0,0.0
654416042,522994,0,1.00390625,-0.0390625,0.013671875,-0.025390625,0.0,0.0,0.0
654417292,522995,0,1.0,-0.037109375,0.001953125,-0.03515625,0.0,0.0,0.0
654418543,522996,0,1.0,-0.033203125,0.005859375,-0.02734375,0.0,0.0,0.0
654419794,522997,0,1.005859375,-0.03125,0.009765625,-0.021484375,0.0,0.0,0.0
654421044,522998,0,1.005859375,-0.041015625,0.00390625,-0.037109375,0.0,0.0,0.0
654422294,522999,0,1.00390625,-0.03515625,0.009765625,-0.025390625,0.0,0.0,0.0
654423544,523000,0,1.00390625,-0.033203125,0.013671875,-0.01953125,0.0,0.0,0.0
654424796,523001,0,1.001953125,-0.029296875,0.01171875,-0.017578125,0.0,0.0,0.0
654426047,523002,0,1.00390625,-0.029296875,0.013671875,-0.015625,0.0,0.0,0.0
654427297,523003,0,1.005859375,-0.029296875,0.009765625,-0.01953125,0.0,0.0,0.0
654428548,523004,0,1.009765625,-0.033203125,0.01171875,-0.021484375,0.0,0.0,0.0
654429800,523005,0,1.009765625,-0.029296875,0.0078125,-0.021484375,0.0,0.0,0.0
654431050,523006,0,1.0,-0.033203125,0.009765625,-0.0234375,0.0,0.0,0.0
654432300,523007,0,0.998046875,-0.0234375,0.009765625,-0.013671875,0.0,0.0,0.0
654433550,523008,0,1.00390625,-0.025390625,0.01171875,-0.013671875,0.0,0.0,0.0
654434801,523009,0,1.00390625,-0.029296875,0.009765625,-0.01953125,0.0,0.0,0.0
654436052,523010,0,1.005859375,-0.029296875,0.009765625,-0.01953125,0.0,0.0,0.0
654437302,523011,0,1.0078125,-0.03125,0.01171875,-0.01953125,0.0,0.0,0.0
654438553,523012,0,1.00390625,-0.02734375,0.01953125,-0.0078125,0.0,0.0,0.0
654439804,523013,0,1.0078125,-0.025390625,0.01171875,-0.013671875,0.0,0.0,0.0
654441054,523014,0,1.01171875,-0.03125,0.0,-0.03125,0.0,0.0,0.0
654442305,523015,0,1.00390625,-0.03515625,0.0,-0.03515625,0.0,0.0,0.0
654443556,523016,0,1.00390625,-0.025390625,0.005859375,-0.01953125,0.0,0.0,0.0
654444807,523017,0,1.013671875,-0.029296875,0.015625,-0.013671875,0.0,0.0,0.0
654446058,523018,0,1.017578125,-0.02734375,0.009765625,-0.017578125,0.0,0.0,0.0
654447310,523019,0,1.0078125,-0.025390625,0.015625,-0.009765625,0.0,0.0,0.0
654448560,523020,0,1.009765625,-0.02734375,0.017578125,-0.009765625,0.0,0.0,0.0
654449810,523021,0,1.0,-0.029296875,0.009765625,-0.01953125,0.0,0.0,0.0
654451060,523022,0,1.005859375,-0.033203125,0.005859375,-0.02734375,0.0,0.0,0.0
654452311,523023,0,1.005859375,-0.029296875,0.009765625,-0.01953125,0.0,0.0,0.0
654453561,523024,0,1.005859375,-0.02734375,0.0078125,-0.01953125,0.0,0.0,0.0
654454813,523025,0,1.0078125,-0.029296875,0.0078125,-0.021484375,0.0,0.0,0.0
654456063,523026,0,1.00390625,-0.033203125,0.009765625,-0.0234375,0.0,0.0,0.0
654457313,523027,0,1.0,-0.029296875,0.0078125,-0.021484375,0.0,0.0,0.0
654458565,523028,0,1.00390625,-0.033203125,0.0078125,-0.025390625,0.0,0.0,0.0
654459816,523029,0,1.00390625,-0.03125,0.005859375,-0.025390625,0.0,0.0,0.0
654461066,523030,0,1.00390625,-0.033203125,0.01171875,-0.021484375,0.0,0.0,0.0
654462316,523031,0,1.0,-0.03515625,0.001953125,-0.033203125,0.0,0.0,0.0
654463567,523032,0,1.00390625,-0.03515625,0.009765625,-0.025390625,0.0,0.0,0.0
654464817,523033,0,1.009765625,-0.037109375,0.015625,-0.021484375,0.0,0.0,0.0
654466069,523034,0,1.00390625,-0.037109375,0.009765625,-0.02734375,0.0,0.0,0.0
654467319,523035,0,1.00390625,-0.033203125,0.00390625,-0.029296875,0.0,0.0,0.0
654468570,523036,0,1.00390625,-0.037109375,0.001953125,-0.03515625,0.0,0.0,0.0
654469822,523037,0,1.0,-0.037109375,0.001953125,-0.03515625,0.0,0.0,0.0
654471072,523038,0,1.0078125,-0.037109375,0.009765625,-0.02734375,0.0,0.0,0.0
654472322,523039,0,1.0078125,-0.0390625,0.0078125,-0.03125,0.0,0.0,0.0
654473572,523040,0,1.00390625,-0.03515625,0.01171875,-0.0234375,0.0,0.0,0.0
654474823,523041,0,1.001953125,-0.0390625,0.001953125,-0.037109375,0.0,0.0,0.0
654476075,523042,0,1.001953125,-0.041015625,0.009765625,-0.03125,0.0,0.0,0.0
654477326,523043,0,1.0,-0.0390625,0.01171875,-0.02734375,0.0,0.0,0.0
654478576,523044,0,1.001953125,-0.03515625,0.0078125,-0.02734375,0.0,0.0,0.0
654479827,523045,0,1.005859375,-0.037109375,0.0,-0.037109375,0.0,0.0,0.0
654481077,523046,0,1.005859375,-0.037109375,0.0078125,-0.029296875,0.0,0.0,0.0
654482327,523047,0,1.0078125,-0.037109375,0.01171875,-0.025390625,0.0,0.0,0.0
654483578,523048,0,1.0,-0.037109375,0.013671875,-0.0234375,0.0,0.0,0.0
654484829,523049,0,1.0078125,-0.037109375,0.01171875,-0.025390625,0.0,0.0,0.0
654486080,523050,0,1.0,-0.033203125,0.015625,-0.017578125,0.0,0.0,0.0
654487332,523051,0,1.0,-0.03515625,0.017578125,-0.017578125,0.0,0.0,0.0
654488582,523052,0,0.998046875,-0.03515625,0.017578125,-0.017578125,0.0,0.0,0.0
654489834,523053,0,1.0,-0.03515625,0.009765625,-0.025390625,0.0,0.0,0.0
654491085,523054,0,0.998046875,-0.037109375,0.013671875,-0.0234375,0.0,0.0,0.0
654492335,523055,0,1.013671875,-0.03515625,0.013671875,-0.021484375,0.0,0.0,0.0
654493586,523056,0,1.00390625,-0.033203125,0.013671875,-0.01953125,0.0,0.0,0.0
654494838,523057,0,1.01171875,-0.025390625,0.013671875,-0.01171875,0.0,0.0,0.0
654496088,523058,0,1.00390625,-0.03125,0.01953125,-0.01171875,0.0,0.0,0.0
654497338,523059,0,1.001953125,-0.03125,0.013671875,-0.017578125,0.0,0.0,0.0
654498589,523060,0,0.998046875,-0.03125,0.015625,-0.015625,0.0,0.0,0.0
654499839,523061,0,1.01171875,-0.033203125,0.013671875,-0.01953125,0.0,0.0,0.0
654501091,523062,0,1.001953125,-0.033203125,0.01171875,-0.021484375,0.0,0.0,0.0
654502341,523063,0,1.0,-0.02734375,0.013671875,-0.013671875,0.0,0.0,0.0
654503592,523064,0,1.00390625,-0.03125,0.013671875,-0.017578125,0.0,0.0,0.0
654504844,523065,0,1.005859375,-0.03125,0.013671875,-0.017578125,0.0,0.0,0.0
654506094,523066,0,1.00390625,-0.029296875,0.017578125,-0.01171875,0.0,0.0,0.0
654507344,523067,0,1.00390625,-0.029296875,0.0,-0.029296875,0.0,0.0,0.0
654508595,523068,0,1.001953125,-0.03515625,0.01171875,-0.0234375,0.0,0.0,0.0
654509846,523069,0,1.001953125,-0.029296875,0.01171875,-0.017578125,0.0,0.0,0.0
654511096,523070,0,1.005859375,-0.029296875,0.013671875,-0.015625,0.0,0.0,0.0
654512346,523071,0,1.01171875,-0.03125,0.0078125,-0.0234375,0.0,0.0,0.0
654513597,523072,0,1.00390625,-0.025390625,0.01953125,-0.005859375,0.0,0.0,0.0
654514847,523073,0,1.0078125,-0.03125,0.001953125,-0.029296875,0.0,0.0,0.0
654516097,523074,0,0.998046875,-0.025390625,0.0078125,-0.017578125,0.0,0.0,0.0
654517349,523075,0,1.0,-0.029296875,0.009765625,-0.01953125,0.0,0.0,0.0
654518599,523076,0,1.005859375,-0.029296875,0.01171875,-0.017578125,0.0,0.0,0.0
654519850,523077,0,1.009765625,-0.02734375,0.00390625,-0.0234375,0.0,0.0,0.0
654521101,523078,0,1.009765625,-0.03125,0.015625,-0.015625,0.0,0.0,0.0
654522351,523079,0,1.009765625,-0.03125,0.0078125,-0.0234375,0.0,0.0,0.0
654523602,523080,0,1.001953125,-0.029296875,0.013671875,-0.015625,0.0,0.0,0.0
654524853,523081,0,1.0,-0.03125,0.001953125,-0.029296875,0.0,0.0,0.0
654526103,523082,0,0.998046875,-0.03125,0.005859375,-0.025390625,0.0,0.0,0.0
654527355,523083,0,1.0,-0.03515625,0.0078125,-0.02734375,0.0,0.0,0.0
654528606,523084,0,1.0,-0.03515625,0.005859375,-0.029296875,0.0,0.0,0.0
654529856,523085,0,1.01171875,-0.03125,0.00390625,-0.02734375,0.0,0.0,0.0
654531108,523086,0,1.0078125,-0.033203125,0.0078125,-0.025390625,0.0,0.0,0.0
654532359,523087,0,1.00390625,-0.037109375,0.0078125,-0.029296875,0.0,0.0,0.0
654533610,523088,0,1.0078125,-0.03515625,0.00390625,-0.03125,0.0,0.0,0.0
654534860,523089,0,1.001953125,-0.037109375,0.00390625,-0.033203125,0.0,0.0,0.0
654536110,523090,0,0.998046875,-0.03515625,0.00390625,-0.03125,0.0,0.0,0.0
654537362,523091,0,1.005859375,-0.037109375,0.005859375,-0.03125,0.0,0.0,0.0
654538614,523092,0,1.00390625,-0.03515625,0.001953125,-0.033203125,0.0,0.0,0.0
654539865,523093,0,1.005859375,-0.037109375,0.009765625,-0.02734375,0.0,0.0,0.0
654541115,523094,0,1.005859375,-0.037109375,0.01171875,-0.025390625,0.0,0.0,0.0
654542366,523095,0,1.0078125,-0.037109375,0.01171875,-0.025390625,0.0,0.0,0.0
654543616,523096,0,1.005859375,-0.0390625,0.0078125,-0.03125,0.0,0.0,0.0
654544867,523097,0,1.005859375,-0.037109375,0.0078125,-0.029296875,0.0,0.0,0.0
654546118,523098,0,1.001953125,-0.0390625,0.009765625,-0.029296875,0.0,0.0,0.0
654547368,523099,0,1.0,-0.03515625,0.0078125,-0.02734375,0.0,0.0,0.0
654548619,523100,0,1.0,-0.037109375,0.021484375,-0.015625,0.0,0.0,0.0
654549871,523101,0,1.001953125,-0.037109375,0.009765625,-0.02734375,0.0,0.0,0.0
654551121,523102,0,1.01171875,-0.037109375,0.0078125,-0.029296875,0.0,0.0,0.0
654552371,523103,0,1.01171875,-0.0390625,0.005859375,-0.033203125,0.0,0.0,0.0
654553623,523104,0,1.005859375,-0.0390625,0.01953125,-0.01953125,0.0,0.0,0.0
654554873,523105,0,1.0,-0.03515625,0.009765625,-0.025390625,0.0,0.0,0.0
654556124,523106,0,1.001953125,-0.037109375,0.013671875,-0.0234375,0.0,0.0,0.0
654557376,523107,0,1.009765625,-0.037109375,0.01171875,-0.025390625,0.0,0.0,0.0
654558626,523108,0,1.00390625,-0.03125,0.0078125,-0.0234375,0.0,0.0,0.0
654559877,523109,0,1.0078125,-0.037109375,0.009765625,-0.02734375,0.0,0.0,0.0
654561127,523110,0,1.005859375,-0.033203125,0.01171875,-0.021484375,0.0,0.0,0.0
654562377,523111,0,1.0078125,-0.033203125,0.015625,-0.017578125,0.0,0.0,0.0
654563629,523112,0,1.001953125,-0.03515625,0.0078125,-0.02734375,0.0,0.0,0.0
654564879,523113,0,1.001953125,-0.02734375,0.015625,-0.01171875,0.0,0.0,0.0
654566130,523114,0,1.0,-0.03125,0.013671875,-0.017578125,0.0,0.0,0.0
654567381,523115,0,1.0078125,-0.033203125,0.005859375,-0.02734375,0.0,0.0,0.0
654568631,523116,0,1.001953125,-0.03125,0.013671875,-0.017578125,0.0,0.0,0.0
654569883,523117,0,1.009765625,-0.033203125,0.009765625,-0.0234375,0.0,0.0,0.0
654571134,523118,0,1.005859375,-0.033203125,0.017578125,-0.015625,0.0,0.0,0.0
654572384,523119,0,1.0,-0.02734375,0.013671875,-0.013671875,0.0,0.0,0.0
654573635,523120,0,1.0,-0.029296875,0.015625,-0.013671875,0.0,0.0,0.0
654574887,523121,0,0.99609375,-0.029296875,0.017578125,-0.01171875,0.0,0.0,0.0
654576137,523122,0,1.0,-0.033203125,0.017578125,-0.015625,0.0,0.0,0.0
654577388,523123,0,1.00390625,-0.029296875,0.01171875,-0.017578125,0.0,0.0,0.0
654578639,523124,0,1.009765625,-0.037109375,0.005859375,-0.03125,0.0,0.0,0.0
654579889,523125,0,1.0,-0.029296875,0.0078125,-0.021484375,0.0,0.0,0.0
654581140,523126,0,1.01171875,-0.02734375,0.009765625,-0.017578125,0.0,0.0,0.0
654582392,523127,0,1.00390625,-0.0234375,0.0078125,-0.015625,0.0,0.0,0.0
654583642,523128,0,1.00390625,-0.025390625,0.013671875,-0.01171875,0.0,0.0,0.0
654584894,523129,0,0.990234375,-0.029296875,0.015625,-0.013671875,0.0,0.0,0.0
654586145,523130,0,1.00390625,-0.02734375,0.0078125,-0.01953125,0.0,0.0,0.0
654587396,523131,0,1.001953125,-0.029296875,0.0078125,-0.021484375,0.0,0.0,0.0
654588647,523132,0,1.00390625,-0.03125,0.005859375,-0.025390625,0.0,0.0,0.0
654589899,523133,0,1.00390625,-0.033203125,0.0078125,-0.025390625,0.0,0.0,0.0
654591150,523134,0,1.00390625,-0.033203125,0.0078125,-0.025390625,0.0,0.0,0.0
654592400,523135,0,1.0,-0.02734375,0.0078125,-0.01953125,0.0,0.0,0.0
654593652,523136,0,0.998046875,-0.033203125,0.013671875,-0.01953125,0.0,0.0,0.0
654594902,523137,0,1.00390625,-0.03515625,0.009765625,-0.025390625,0.0,0.0,0.0
654596152,523138,0,1.00390625,-0.033203125,0.009765625,-0.0234375,0.0,0.0,0.0
654597402,523139,0,1.005859375,-0.029296875,0.005859375,-0.0234375,0.0,0.0,0.0
654598653,523140,0,1.0,-0.033203125,0.009765625,-0.0234375,0.0,0.0,0.0
654599904,523141,0,1.0078125,-0.03515625,0.00390625,-0.03125,0.0,0.0,0.0
654601154,523142,0,1.001953125,-0.041015625,0.01171875,-0.029296875,0.0,0.0,0.0
654602406,523143,0,1.0078125,-0.033203125,0.013671875,-0.01953125,0.0,0.0,0.0
654603657,523144,0,1.00390625,-0.041015625,0.005859375,-0.03515625,0.0,0.0,0.0
654604907,523145,0,1.0078125,-0.037109375,0.009765625,-0.02734375,0.0,0.0,0.0
654606158,523146,0,0.998046875,-0.033203125,0.01171875,-0.021484375,0.0,0.0,0.0
654607408,523147,0,1.013671875,-0.033203125,-0.00390625,-0.037109375,0.0,0.0,0.0
654608659,523148,0,1.0078125,-0.0390625,0.009765625,-0.029296875,0.0,0.0,0.0
654609910,523149,0,1.005859375,-0.037109375,0.00390625,-0.033203125,0.0,0.0,0.0
654611160,523150,0,1.001953125,-0.03515625,0.009765625,-0.025390625,0.0,0.0,0.0
654612410,523151,0,1.005859375,-0.037109375,0.013671875,-0.0234375,0.0,0.0,0.0
654613662,523152,0,0.998046875,-0.037109375,0.005859375,-0.03125,0.0,0.0,0.0
654614912,523153,0,1.005859375,-0.03515625,0.0078125,-0.02734375,0.0,0.0,0.0
654616163,523154,0,1.001953125,-0.03515625,0.00390625,-0.03125,0.0,0.0,0.0
654617413,523155,0,1.0,-0.0390625,0.013671875,-0.025390625,0.0,0.0,0.0
654618664,523156,0,1.00390625,-0.03515625,0.01171875,-0.0234375,0.0,0.0,0.0
654619915,523157,0,1.005859375,-0.037109375,0.005859375,-0.03125,0.0,0.0,0.0
654621167,523158,0,1.00390625,-0.033203125,0.015625,-0.017578125,0.0,0.0,0.0
654622417,523159,0,1.0078125,-0.033203125,0.005859375,-0.02734375,0.0,0.0,0.0
654623668,523160,0,1.005859375,-0.033203125,0.015625,-0.017578125,0.0,0.0,0.0
654624920,523161,0,1.005859375,-0.03125,0.009765625,-0.021484375,0.0,0.0,0.0
654626171,523162,0,1.00390625,-0.037109375,0.01171875,-0.025390625,0.0,0.0,0.0
654627422,523163,0,1.013671875,-0.033203125,0.009765625,-0.0234375,0.0,0.0,0.0
654628674,523164,0,1.001953125,-0.033203125,0.015625,-0.017578125,0.0,0.0,0.0
654629924,523165,0,1.00390625,-0.037109375,0.013671875,-0.0234375,0.0,0.0,0.0
654631175,523166,0,1.009765625,-0.03515625,0.001953125,-0.033203125,0.0,0.0,0.0
654632426,523167,0,1.005859375,-0.03515625,0.013671875,-0.021484375,0.0,0.0,0.0
654633677,523168,0,1.009765625,-0.033203125,0.0078125,-0.025390625,0.0,0.0,0.0
654634928,523169,0,1.0078125,-0.029296875,0.01171875,-0.017578125,0.0,0.0,0.0
654636179,523170,0,1.009765625,-0.03125,0.015625,-0.015625,0.0,0.0,0.0
654637431,523171,0,0.998046875,-0.029296875,0.01171875,-0.017578125,0.0,0.0,0.0
654638681,523172,0,1.017578125,-0.02734375,0.01171875,-0.015625,0.0,0.0,0.0
654639932,523173,0,1.009765625,-0.029296875,0.013671875,-0.015625,0.0,0.0,0.0
654641182,523174,0,1.005859375,-0.02734375,0.01953125,-0.0078125,0.0,0.0,0.0
654642432,523175,0,1.005859375,-0.025390625,0.01953125,-0.005859375,0.0,0.0,0.0
654643684,523176,0,1.0078125,-0.025390625,0.009765625,-0.015625,0.0,0.0,0.0
654644934,523177,0,1.001953125,-0.029296875,0.009765625,-0.01953125,0.0,0.0,0.0
654646185,523178,0,1.001953125,-0.02734375,0.01953125,-0.0078125,0.0,0.0,0.0
654647436,523179,0,1.001953125,-0.03125,0.017578125,-0.013671875,0.0,0.0,0.0
654648687,523180,0,1.0078125,-0.03515625,0.01171875,-0.0234375,0.0,0.0,0.0
654649937,523181,0,1.001953125,-0.03125,0.009765625,-0.021484375,0.0,0.0,0.0
654651187,523182,0,1.00390625,-0.029296875,0.009765625,-0.01953125,0.0,0.0,0.0
654652439,523183,0,1.005859375,-0.029296875,0.0078125,-0.021484375,0.0,0.0,0.0
654653690,523184,0,1.0078125,-0.029296875,0.015625,-0.013671875,0.0,0.0,0.0
654654940,523185,0,1.013671875,-0.029296875,0.00390625,-0.025390625,0.0,0.0,0.0
654656192,523186,0,1.0078125,-0.029296875,0.01171875,-0.017578125,0.0,0.0,0.0
654657443,523187,0,0.990234375,-0.033203125,0.01171875,-0.021484375,0.0,0.0,0.0
654658694,523188,0,1.009765625,-0.037109375,0.00390625,-0.033203125,0.0,0.0,0.0
654659944,523189,0,0.99609375,-0.03125,0.0078125,-0.0234375,0.0,0.0,0.0
654661194,523190,0,0.998046875,-0.02734375,0.009765625,-0.017578125,0.0,0.0,0.0
654662445,523191,0,1.0078125,-0.03515625,0.01953125,-0.015625,0.0,0.0,0.0
654663697,523192,0,1.0078125,-0.037109375,0.009765625,-0.02734375,0.0,0.0,0.0
654664947,523193,0,1.00390625,-0.037109375,0.0078125,-0.029296875,0.0,0.0,0.0
654666199,523194,0,1.00390625,-0.03515625,0.013671875,-0.021484375,0.0,0.0,0.0
654667449,523195,0,1.00390625,-0.03515625,0.015625,-0.01953125,0.0,0.0,0.0
654668701,523196,0,1.005859375,-0.03515625,0.005859375,-0.029296875,0.0,0.0,0.0
654669951,523197,0,1.005859375,-0.037109375,0.009765625,-0.02734375,0.0,0.0,0.0
654671202,523198,0,1.0,-0.037109375,0.01171875,-0.025390625,0.0,0.0,0.0
654672454,523199,0,1.0,-0.0390625,0.0078125,-0.03125,0.0,0.0,0.0
654673704,523200,0,1.001953125,-0.03515625,0.01171875,-0.0234375,0.0,0.0,0.0
654674955,523201,0,1.0,-0.0390625,0.015625,-0.0234375,0.0,0.0,0.0
654676206,523202,0,1.0,-0.037109375,0.0078125,-0.029296875,0.0,0.0,0.0
654677457,523203,0,1.009765625,-0.037109375,0.01171875,-0.025390625,0.0,0.0,0.0
654678708,523204,0,1.005859375,-0.037109375,0.01171875,-0.025390625,0.0,0.0,0.0
654679959,523205,0,1.001953125,-0.0390625,0.0078125,-0.03125,0.0,0.0,0.0
654681211,523206,0,1.009765625,-0.037109375,0.009765625,-0.02734375,0.0,0.0,0.0
654682463,523207,0,1.009765625,-0.037109375,0.01171875,-0.025390625,0.0,0.0,0.0
654683713,523208,0,1.013671875,-0.03515625,0.009765625,-0.025390625,0.0,0.0,0.0
654684965,523209,0,1.005859375,-0.03515625,0.013671875,-0.021484375,0.0,0.0,0.0
654686215,523210,0,1.005859375,-0.03515625,0.01171875,-0.0234375,0.0,0.0,0.0
654687466,523211,0,1.00390625,-0.033203125,0.009765625,-0.0234375,0.0,0.0,0.0
654688716,523212,0,1.005859375,-0.033203125,0.009765625,-0.0234375,0.0,0.0,0.0
654689966,523213,0,0.99609375,-0.03515625,-0.03125,-0.06640625,0.0,0.0,0.0
654691216,523214,0,1.0,-0.037109375,0.005859375,-0.03125,0.0,0.0,0.0
654692468,523215,0,1.005859375,-0.033203125,0.009765625,-0.0234375,0.0,0.0,0.0
654693719,523216,0,1.009765625,-0.033203125,0.009765625,-0.0234375,0.0,0.0,0.0
654694969,523217,0,1.005859375,-0.03125,0.01171875,-0.01953125,0.0,0.0,0.0
654696221,523218,0,0.99609375,-0.029296875,0.009765625,-0.01953125,0.0,0.0,0.0
654697471,523219,0,1.001953125,-0.029296875,0.0078125,-0.021484375,0.0,0.0,0.0
654698723,523220,0,1.001953125,-0.03125,0.009765625,-0.021484375,0.0,0.0,0.0
654699973,523221,0,1.005859375,-0.02734375,0.013671875,-0.013671875,0.0,0.0,0.0
654701225,523222,0,1.001953125,-0.029296875,0.009765625,-0.01953125,0.0,0.0,0.0
654702476,523223,0,1.005859375,-0.03125,0.009765625,-0.021484375,0.0,0.0,0.0
654703727,523224,0,1.00390625,-0.033203125,0.01171875,-0.021484375,0.0,0.0,0.0
654704977,523225,0,1.001953125,-0.025390625,0.01171875,-0.013671875,0.0,0.0,0.0
654706228,523226,0,1.001953125,-0.02734375,0.009765625,-0.017578125,0.0,0.0,0.0
654707479,523227,0,1.005859375,-0.03125,0.013671875,-0.017578125,0.0,0.0,0.0
654708730,523228,0,1.005859375,-0.03125,0.017578125,-0.013671875,0.0,0.0,0.0
654709981,523229,0,1.0234375,-0.029296875,0.009765625,-0.01953125,0.0,0.0,0.0
654711233,523230,0,1.01953125,-0.02734375,0.009765625,-0.017578125,0.0,0.0,0.0
654712484,523231,0,1.015625,-0.02734375,0.013671875,-0.013671875,0.0,0.0,0.0
654713734,523232,0,1.009765625,-0.029296875,0.009765625,-0.01953125,0.0,0.0,0.0
654714984,523233,0,1.00390625,-0.025390625,0.015625,-0.009765625,0.0,0.0,0.0
654716235,523234,0,0.9921875,-0.03125,0.0078125,-0.0234375,0.0,0.0,0.0
654717486,523235,0,1.009765625,-0.03125,0.013671875,-0.017578125,0.0,0.0,0.0
654718737,523236,0,1.005859375,-0.03125,0.01171875,-0.01953125,0.0,0.0,0.0
654719987,523237,0,1.0078125,-0.029296875,0.005859375,-0.0234375,0.0,0.0,0.0
654721238,523238,0,1.0078125,-0.02734375,0.01171875,-0.015625,0.0,0.0,0.0
654722489,523239,0,1.005859375,-0.03125,0.01171875,-0.01953125,0.0,0.0,0.0
654723740,523240,0,1.00390625,-0.033203125,0.01171875,-0.021484375,0.0,0.0,0.0
654724992,523241,0,1.001953125,-0.03125,0.01171875,-0.01953125,0.0,0.0,0.0
654726242,523242,0,1.00390625,-0.033203125,0.013671875,-0.01953125,0.0,0.0,0.0
654727493,523243,0,1.00390625,-0.0390625,0.013671875,-0.025390625,0.0,0.0,0.0
654728744,523244,0,1.001953125,-0.03515625,0.005859375,-0.029296875,0.0,0.0,0.0
654729994,523245,0,1.005859375,-0.03515625,0.013671875,-0.021484375,0.0,0.0,0.0
654731245,523246,0,1.0078125,-0.03515625,0.01171875,-0.0234375,0.0,0.0,0.0
654732497,523247,0,1.005859375,-0.041015625,0.01171875,-0.029296875,0.0,0.0,0.0
654733749,523248,0,1.001953125,-0.037109375,0.0078125,-0.029296875,0.0,0.0,0.0
654734999,523249,0,1.0078125,-0.0390625,0.009765625,-0.029296875,0.0,0.0,0.0
654736250,523250,0,1.0,-0.037109375,0.00390625,-0.033203125,0.0,0.0,0.0
654737500,523251,0,1.005859375,-0.04296875,0.005859375,-0.037109375,0.0,0.0,0.0
654738752,523252,0,1.0,-0.037109375,0.00390625,-0.033203125,0.0,0.0,0.0
654740003,523253,0,1.0,-0.037109375,0.013671875,-0.0234375,0.0,0.0,0.0
654741254,523254,0,1.00390625,-0.044921875,0.00390625,-0.041015625,0.0,0.0,0.0
654742504,523255,0,1.001953125,-0.03515625,0.015625,-0.01953125,0.0,0.0,0.0
654743756,523256,0,1.00390625,-0.03515625,0.005859375,-0.029296875,0.0,0.0,0.0
654745006,523257,0,1.0078125,-0.037109375,0.0078125,-0.029296875,0.0,0.0,0.0
654746257,523258,0,1.00390625,-0.033203125,0.01171875,-0.021484375,0.0,0.0,0.0
654747508,523259,0,1.00390625,-0.0390625,0.01171875,-0.02734375,0.0,0.0,0.0
654748759,523260,0,1.00390625,-0.037109375,0.01171875,-0.025390625,0.0,0.0,0.0
654750009,523261,0,1.001953125,-0.037109375,0.009765625,-0.02734375,0.0,0.0,0.0
654751259,523262,0,0.998046875,-0.037109375,0.009765625,-0.02734375,0.0,0.0,0.0
654752510,523263,0,1.0078125,-0.037109375,0.005859375,-0.03125,0.0,0.0,0.0
654753762,523264,0,1.001953125,-0.033203125,0.005859375,-0.02734375,0.0,0.0,0.0
654755013,523265,0,1.001953125,-0.03515625,0.00390625,-0.03125,0.0,0.0,0.0
654756271,523266,0,1.00390625,-0.037109375,0.005859375,-0.03125,0.0,0.0,0.0
654757522,523267,0,1.0078125,-0.03125,0.017578125,-0.013671875,0.0,0.0,0.0
654758773,523268,0,1.0078125,-0.033203125,0.0078125,-0.025390625,0.0,0.0,0.0
654760025,523269,0,1.0078125,-0.033203125,0.001953125,-0.03125,0.0,0.0,0.0
654761277,523270,0,0.998046875,-0.03125,0.0078125,-0.0234375,0.0,0.0,0.0
654762528,523271,0,1.0078125,-0.029296875,0.0078125,-0.021484375,0.0,0.0,0.0
654763779,523272,0,1.0078125,-0.03125,0.005859375,-0.025390625,0.0,0.0,0.0
654765031,523273,0,1.005859375,-0.033203125,0.0078125,-0.025390625,0.0,0.0,0.0
654766283,523274,0,0.994140625,-0.033203125,0.015625,-0.017578125,0.0,0.0,0.0
654767535,523275,0,1.015625,-0.02734375,0.0078125,-0.01953125,0.0,0.0,0.0
654768786,523276,0,1.00390625,-0.029296875,0.001953125,-0.02734375,0.0,0.0,0.0
654770036,523277,0,1.0,-0.033203125,0.01171875,-0.021484375,0.0,0.0,0.0
654771287,523278,0,1.0,-0.02734375,0.0078125,-0.01953125,0.0,0.0,0.0
654772537,523279,0,1.005859375,-0.029296875,0.01171875,-0.017578125,0.0,0.0,0.0
654773787,523280,0,1.00390625,-0.03125,0.01171875,-0.01953125,0.0,0.0,0.0
654775038,523281,0,1.005859375,-0.029296875,0.01171875,-0.017578125,0.0,0.0,0.0
654776289,523282,0,1.001953125,-0.033203125,0.01171875,-0.021484375,0.0,0.0,0.0
654777539,523283,0,1.00390625,-0.03125,0.015625,-0.015625,0.0,0.0,0.0
654778790,523284,0,1.0078125,-0.029296875,0.013671875,-0.015625,0.0,0.0,0.0
654780042,523285,0,1.0,-0.033203125,0.017578125,-0.015625,0.0,0.0,0.0
654781292,523286,0,1.001953125,-0.02734375,0.013671875,-0.013671875,0.0,0.0,0.0
654782543,523287,0,1.005859375,-0.02734375,0.0078125,-0.01953125,0.0,0.0,0.0
654783794,523288,0,1.001953125,-0.03125,0.017578125,-0.013671875,0.0,0.0,0.0
654785044,523289,0,1.0078125,-0.025390625,0.005859375,-0.01953125,0.0,0.0,0.0
654786294,523290,0,1.005859375,-0.033203125,0.021484375,-0.01171875,0.0,0.0,0.0
654787544,523291,0,1.005859375,-0.037109375,0.015625,-0.021484375,0.0,0.0,0.0
654788796,523292,0,1.0078125,-0.03515625,0.009765625,-0.025390625,0.0,0.0,0.0
654790047,523293,0,1.0078125,-0.033203125,0.0078125,-0.025390625,0.0,0.0,0.0
654791297,523294,0,0.998046875,-0.03515625,0.00390625,-0.03125,0.0,0.0,0.0
654792548,523295,0,1.0,-0.03515625,0.0078125,-0.02734375,0.0,0.0,0.0
654793800,523296,0,1.0,-0.033203125,0.013671875,-0.01953125,0.0,0.0,0.0
654795050,523297,0,1.013671875,-0.02734375,0.00390625,-0.0234375,0.0,0.0,0.0
654796300,523298,0,1.00390625,-0.03125,0.00390625,-0.02734375,0.0,0.0,0.0
654797550,523299,0,1.00390625,-0.037109375,0.0078125,-0.029296875,0.0,0.0,0.0
654798801,523300,0,1.00390625,-0.0390625,0.009765625,-0.029296875,0.0,0.0,0.0
654800052,523301,0,1.001953125,-0.033203125,0.0078125,-0.025390625,0.0,0.0,0.0
654801302,523302,0,1.0078125,-0.033203125,0.01171875,-0.021484375,0.0,0.0,0.0
654802553,523303,0,1.005859375,-0.033203125,-0.0078125,-0.041015625,0.0,0.0,0.0
654803804,523304,0,1.005859375,-0.0390625,0.005859375,-0.033203125,0.0,0.0,0.0
654805054,523305,0,1.001953125,-0.03125,0.01171875,-0.01953125,0.0,0.0,0.0
654806305,523306,0,1.009765625,-0.033203125,0.0078125,-0.025390625,0.0,0.0,0.0
654807556,523307,0,1.005859375,-0.037109375,0.005859375,-0.03125,0.0,0.0,0.0
654808807,523308,0,1.001953125,-0.0390625,0.0078125,-0.03125,0.0,0.0,0.0
654810058,523309,0,1.00390625,-0.041015625,0.0078125,-0.033203125,0.0,0.0,0.0
654811310,523310,0,0.99609375,-0.03125,0.013671875,-0.017578125,0.0,0.0,0.0
654812560,523311,0,1.005859375,-0.037109375,0.009765625,-0.02734375,0.0,0.0,0.0
654813810,523312,0,1.0078125,-0.03515625,0.01171875,-0.0234375,0.0,0.0,0.0
654815060,523313,0,1.005859375,-0.037109375,0.0078125,-0.029296875,0.0,0.0,0.0
654816311,523314,0,1.0,-0.03515625,0.009765625,-0.025390625,0.0,0.0,0.0
654817561,523315,0,1.0,-0.033203125,0.013671875,-0.01953125,0.0,0.0,0.0
654818813,523316,0,1.0078125,-0.0390625,0.013671875,-0.025390625,0.0,0.0,0.0
654820063,523317,0,1.0078125,-0.037109375,0.009765625,-0.02734375,0.0,0.0,0.0
654821313,523318,0,0.998046875,-0.029296875,0.005859375,-0.0234375,0.0,0.0,0.0
654822565,523319,0,1.00390625,-0.03125,0.009765625,-0.021484375,0.0,0.0,0.0
654823816,523320,0,1.0,-0.029296875,0.01171875,-0.017578125,0.0,0.0,0.0
654825066,523321,0,1.00390625,-0.025390625,0.0078125,-0.017578125,0.0,0.0,0.0
654826316,523322,0,1.005859375,-0.03515625,0.01171875,-0.0234375,0.0,0.0,0.0
654827567,523323,0,1.005859375,-0.03125,0.0,-0.03125,0.0,0.0,0.0
654828817,523324,0,1.001953125,-0.02734375,0.009765625,-0.017578125,0.0,0.0,0.0
654830069,523325,0,1.0,-0.033203125,0.013671875,-0.01953125,0.0,0.0,0.0
654831319,523326,0,1.001953125,-0.033203125,0.01171875,-0.021484375,0.0,0.0,0.0
654832570,523327,0,1.0,-0.03125,0.005859375,-0.025390625,0.0,0.0,0.0
654833822,523328,0,0.998046875,-0.03125,0.01171875,-0.01953125,0.0,0.0,0.0
654835072,523329,0,0.998046875,-0.03515625,0.009765625,-0.025390625,0.0,0.0,0.0
654836322,523330,0,1.0078125,-0.02734375,0.013671875,-0.013671875,0.0,0.0,0.0
654837572,523331,0,1.001953125,-0.03125,0.017578125,-0.013671875,0.0,0.0,0.0
654838823,523332,0,1.0078125,-0.02734375,0.015625,-0.01171875,0.0,0.0,0.0
654840075,523333,0,1.001953125,-0.029296875,0.015625,-0.013671875,0.0,0.0,0.0
654841326,523334,0,1.0078125,-0.033203125,0.015625,-0.017578125,0.0,0.0,0.0
654842576,523335,0,1.001953125,-0.03125,0.0078125,-0.0234375,0.0,0.0,0.0
654843827,523336,0,1.001953125,-0.033203125,0.009765625,-0.0234375,0.0,0.0,0.0
654845077,523337,0,1.00390625,-0.02734375,0.0234375,-0.00390625,0.0,0.0,0.0
654846327,523338,0,1.0,-0.029296875,0.013671875,-0.015625,0.0,0.0,0.0
654847578,523339,0,1.0078125,-0.029296875,0.021484375,-0.0078125,0.0,0.0,0.0
654848829,523340,0,1.009765625,-0.03515625,0.01171875,-0.0234375,0.0,0.0,0.0
654850080,523341,0,1.001953125,-0.029296875,0.015625,-0.013671875,0.0,0.0,0.0
654851332,523342,0,1.00390625,-0.033203125,0.01171875,-0.021484375,0.0,0.0,0.0
654852582,523343,0,1.0,-0.03125,0.01171875,-0.01953125,0.0,0.0,0.0
654853834,523344,0,1.001953125,-0.03125,0.01171875,-0.01953125,0.0,0.0,0.0
654855085,523345,0,1.0078125,-0.033203125,0.009765625,-0.0234375,0.0,0.0,0.0
654856335,523346,0,1.001953125,-0.03515625,0.017578125,-0.017578125,0.0,0.0,0.0
654857586,523347,0,1.005859375,-0.03125,0.0078125,-0.0234375,0.0,0.0,0.0
654858838,523348,0,1.0,-0.03515625,0.005859375,-0.029296875,0.0,0.0,0.0
654860088,523349,0,1.00390625,-0.033203125,0.01953125,-0.013671875,0.0,0.0,0.0
654861338,523350,0,1.0078125,-0.033203125,0.01171875,-0.021484375,0.0,0.0,0.0
654862589,523351,0,1.005859375,-0.041015625,0.0078125,-0.033203125,0.0,0.0,0.0
654863839,523352,0,1.00390625,-0.033203125,0.009765625,-0.0234375,0.0,0.0,0.0
654865091,523353,0,0.998046875,-0.03515625,0.00390625,-0.03125,0.0,0.0,0.0
654866341,523354,0,1.005859375,-0.03515625,0.001953125,-0.033203125,0.0,0.0,0.0
654867592,523355,0,1.005859375,-0.03515625,0.009765625,-0.025390625,0.0,0.0,0.0
654868844,523356,0,1.00390625,-0.0390625,0.0078125,-0.03125,0.0,0.0,0.0
654870094,523357,0,1.0078125,-0.03515625,0.01171875,-0.0234375,0.0,0.0,0.0
654871344,523358,0,1.017578125,-0.033203125,0.009765625,-0.0234375,0.0,0.0,0.0
654872595,523359,0,1.005859375,-0.03515625,0.01171875,-0.0234375,0.0,0.0,0.0
654873846,523360,0,1.00390625,-0.029296875,0.015625,-0.013671875,0.0,0.0,0.0
654875096,523361,0,1.017578125,-0.033203125,0.0078125,-0.025390625,0.0,0.0,0.0
654876346,523362,0,1.009765625,-0.03515625,0.005859375,-0.029296875,0.0,0.0,0.0
654877597,523363,0,1.00390625,-0.03515625,0.0078125,-0.02734375,0.0,0.0,0.0
654878847,523364,0,1.001953125,-0.03515625,0.00390625,-0.03125,0.0,0.0,0.0
654880097,523365,0,1.0,-0.03515625,0.013671875,-0.021484375,0.0,0.0,0.0
654881349,523366,0,1.0,-0.03515625,0.009765625,-0.025390625,0.0,0.0,0.0
654882599,523367,0,0.998046875,-0.037109375,0.0078125,-0.029296875,0.0,0.0,0.0
654883850,523368,0,1.0,-0.033203125,0.0078125,-0.025390625,0.0,0.0,0.0
654885101,523369,0,1.001953125,-0.03515625,0.01171875,-0.0234375,0.0,0.0,0.0
654886351,523370,0,1.00390625,-0.029296875,0.005859375,-0.0234375,0.0,0.0,0.0
654887602,523371,0,1.00390625,-0.03515625,0.0078125,-0.02734375,0.0,0.0,0.0
654888853,523372,0,1.0078125,-0.037109375,0.015625,-0.021484375,0.0,0.0,0.0
654890103,523373,0,1.0,-0.029296875,0.01171875,-0.017578125,0.0,0.0,0.0
654891355,523374,0,1.0078125,-0.03125,0.017578125,-0.013671875,0.0,0.0,0.0
654892606,523375,0,1.013671875,-0.033203125,0.0078125,-0.025390625,0.0,0.0,0.0
654893856,523376,0,1.001953125,-0.029296875,0.00390625,-0.025390625,0.0,0.0,0.0
654895108,523377,0,1.001953125,-0.03515625,0.01171875,-0.0234375,0.0,0.0,0.0
654896359,523378,0,1.001953125,-0.03125,0.005859375,-0.025390625,0.0,0.0,0.0
654897610,523379,0,0.998046875,-0.03125,0.01171875,-0.01953125,0.0,0.0,0.0
654898860,523380,0,1.0078125,-0.033203125,0.00390625,-0.029296875,0.0,0.0,0.0
654900110,523381,0,1.005859375,-0.03125,0.00390625,-0.02734375,0.0,0.0,0.0
654901362,523382,0,1.013671875,-0.025390625,0.015625,-0.009765625,0.0,0.0,0.0
654902614,523383,0,1.005859375,-0.033203125,0.009765625,-0.0234375,0.0,0.0,0.0
654903865,523384,0,0.994140625,-0.033203125,0.015625,-0.017578125,0.0,0.0,0.0
654905115,523385,0,1.0078125,-0.029296875,0.01171875,-0.017578125,0.0,0.0,0.0
654906366,523386,0,1.00390625,-0.033203125,0.009765625,-0.0234375,0.0,0.0,0.0
654907616,523387,0,1.00390625,-0.029296875,0.01171875,-0.017578125,0.0,0.0,0.0
654908867,523388,0,1.00390625,-0.03125,0.01171875,-0.01953125,0.0,0.0,0.0
654910118,523389,0,1.005859375,-0.033203125,0.01171875,-0.021484375,0.0,0.0,0.0
654911368,523390,0,1.001953125,-0.025390625,0.017578125,-0.0078125,0.0,0.0,0.0
654912619,523391,0,1.001953125,-0.03515625,0.005859375,-0.029296875,0.0,0.0,0.0
654913871,523392,0,1.00390625,-0.02734375,0.01171875,-0.015625,0.0,0.0,0.0
654915121,523393,0,1.005859375,-0.033203125,0.01171875,-0.021484375,0.0,0.0,0.0
654916371,523394,0,1.005859375,-0.029296875,0.0078125,-0.021484375,0.0,0.0,0.0
654917623,523395,0,1.001953125,-0.033203125,0.01171875,-0.021484375,0.0,0.0,0.0
654918873,523396,0,1.001953125,-0.03125,0.01171875,-0.01953125,0.0,0.0,0.0
654920124,523397,0,1.001953125,-0.03125,0.00390625,-0.02734375,0.0,0.0,0.0
654921376,523398,0,1.00390625,-0.03125,0.01171875,-0.01953125,0.0,0.0,0.0
654922626,523399,0,1.00390625,-0.033203125,0.009765625,-0.0234375,0.0,0.0,0.0
654923877,523400,0,1.00390625,-0.03515625,0.009765625,-0.025390625,0.0,0.0,0.0
654925127,523401,0,1.009765625,-0.03515625,0.005859375,-0.029296875,0.0,0.0,0.0
654926377,523402,0,1.001953125,-0.03515625,0.001953125,-0.033203125,0.0,0.0,0.0
654927629,523403,0,0.998046875,-0.03515625,0.017578125,-0.017578125,0.0,0.0,0.0
654928879,523404,0,1.0,-0.03515625,0.0078125,-0.02734375,0.0,0.0,0.0
654930130,523405,0,1.00390625,-0.033203125,0.009765625,-0.0234375,0.0,0.0,0.0
654931381,523406,0,0.998046875,-0.037109375,0.001953125,-0.03515625,0.0,0.0,0.0
654932631,523407,0,1.0078125,-0.03515625,0.01171875,-0.0234375,0.0,0.0,0.0
654933883,523408,0,1.001953125,-0.03515625,0.01171875,-0.0234375,0.0,0.0,0.0
654935134,523409,0,1.009765625,-0.03515625,0.01171875,-0.0234375,0.0,0.0,0.0
654936384,523410,0,1.005859375,-0.033203125,0.01171875,-0.021484375,0.0,0.0,0.0
654937635,523411,0,0.99609375,-0.03515625,0.009765625,-0.025390625,0.0,0.0,0.0
654938887,523412,0,1.0,-0.02734375,0.01171875,-0.015625,0.0,0.0,0.0
654940137,523413,0,1.0078125,-0.033203125,0.0078125,-0.025390625,0.0,0.0,0.0
654941388,523414,0,1.00390625,-0.033203125,0.00390625,-0.029296875,0.0,0.0,0.0
654942639,523415,0,0.99609375,-0.03515625,0.01171875,-0.0234375,0.0,0.0,0.0
654943889,523416,0,1.009765625,-0.037109375,0.0078125,-0.029296875,0.0,0.0,0.0
654945140,523417,0,1.005859375,-0.033203125,0.01171875,-0.021484375,0.0,0.0,0.0
654946392,523418,0,1.009765625,-0.03125,0.009765625,-0.021484375,0.0,0.0,0.0
654947642,523419,0,1.00390625,-0.03515625,0.00390625,-0.03125,0.0,0.0,0.0
654948894,523420,0,1.001953125,-0.037109375,0.009765625,-0.02734375,0.0,0.0,0.0
654950145,523421,0,0.998046875,-0.02734375,0.013671875,-0.013671875,0.0,0.0,0.0
654951396,523422,0,1.005859375,-0.03125,0.001953125,-0.029296875,0.0,0.0,0.0
654952647,523423,0,0.998046875,-0.037109375,0.01171875,-0.025390625,0.0,0.0,0.0
654953899,523424,0,1.0078125,-0.037109375,0.0078125,-0.029296875,0.0,0.0,0.0
654955150,523425,0,1.015625,-0.03125,0.01171875,-0.01953125,0.0,0.0,0.0
654956400,523426,0,0.998046875,-0.037109375,0.009765625,-0.02734375,0.0,0.0,0.0
654957652,523427,0,1.001953125,-0.03125,0.01171875,-0.01953125,0.0,0.0,0.0
654958902,523428,0,1.001953125,-0.033203125,0.01171875,-0.021484375,0.0,0.0,0.0
654960152,523429,0,1.00390625,-0.033203125,0.005859375,-0.02734375,0.0,0.0,0.0
654961402,523430,0,1.005859375,-0.033203125,0.017578125,-0.015625,0.0,0.0,0.0
654962653,523431,0,1.001953125,-0.03125,0.009765625,-0.021484375,0.0,0.0,0.0
654963904,523432,0,1.009765625,-0.03125,0.005859375,-0.025390625,0.0,0.0,0.0
654965154,523433,0,0.998046875,-0.03125,0.0078125,-0.0234375,0.0,0.0,0.0
654966406,523434,0,1.00390625,-0.03125,0.013671875,-0.017578125,0.0,0.0,0.0
654967657,523435,0,1.005859375,-0.03515625,0.009765625,-0.025390625,0.0,0.0,0.0
654968907,523436,0,1.005859375,-0.03125,0.005859375,-0.025390625,0.0,0.0,0.0
654970158,523437,0,1.005859375,-0.033203125,0.005859375,-0.02734375,0.0,0.0,0.0
654971408,523438,0,1.0078125,-0.033203125,0.017578125,-0.015625,0.0,0.0,0.0
654972659,523439,0,1.00390625,-0.033203125,0.013671875,-0.01953125,0.0,0.0,0.0
654973910,523440,0,1.00390625,-0.033203125,0.013671875,-0.01953125,0.0,0.0,0.0
654975160,523441,0,1.0,-0.03125,0.01171875,-0.01953125,0.0,0.0,0.0
654976410,523442,0,1.00390625,-0.03125,0.015625,-0.015625,0.0,0.0,0.0
654977662,523443,0,1.013671875,-0.02734375,0.009765625,-0.017578125,0.0,0.0,0.0
654978912,523444,0,1.005859375,-0.033203125,0.021484375,-0.01171875,0.0,0.0,0.0
654980163,523445,0,1.00390625,-0.033203125,0.021484375,-0.01171875,0.0,0.0,0.0
654981413,523446,0,0.99609375,-0.033203125,0.017578125,-0.015625,0.0,0.0,0.0
654982664,523447,0,1.009765625,-0.025390625,0.015625,-0.009765625,0.0,0.0,0.0
654983915,523448,0,0.99609375,-0.03125,0.0078125,-0.0234375,0.0,0.0,0.0
654985167,523449,0,1.0078125,-0.02734375,0.013671875,-0.013671875,0.0,0.0,0.0
654986417,523450,0,1.005859375,-0.029296875,0.009765625,-0.01953125,0.0,0.0,0.0
654987668,523451,0,1.0078125,-0.02734375,0.009765625,-0.017578125,0.0,0.0,0.0
654988920,523452,0,1.00390625,-0.02734375,0.01171875,-0.015625,0.0,0.0,0.0
654990171,523453,0,1.005859375,-0.03125,0.013671875,-0.017578125,0.0,0.0,0.0
654991422,523454,0,1.0,-0.033203125,0.005859375,-0.02734375,0.0,0.0,0.0
654992674,523455,0,1.00390625,-0.03125,0.01171875,-0.01953125,0.0,0.0,0.0
654993924,523456,0,1.005859375,-0.03515625,0.013671875,-0.021484375,0.0,0.0,0.0
654995175,523457,0,1.001953125,-0.033203125,0.005859375,-0.02734375,0.0,0.0,0.0
654996426,523458,0,1.005859375,-0.033203125,0.009765625,-0.0234375,0.0,0.0,0.0
654997677,523459,0,1.005859375,-0.03125,0.013671875,-0.017578125,0.0,0.0,0.0
654998928,523460,0,1.005859375,-0.03515625,0.001953125,-0.033203125,0.0,0.0,0.0
655000179,523461,0,1.00390625,-0.037109375,0.01171875,-0.025390625,0.0,0.0,0.0
655001431,523462,0,1.005859375,-0.03515625,0.005859375,-0.029296875,0.0,0.0,0.0
655002681,523463,0,1.0078125,-0.029296875,0.009765625,-0.01953125,0.0,0.0,0.0
655003932,523464,0,1.0,-0.03125,0.001953125,-0.029296875,0.0,0.0,0.0
655005182,523465,0,1.00390625,-0.03515625,0.001953125,-0.033203125,0.0,0.0,0.0
655006432,523466,0,1.0,-0.03515625,0.00390625,-0.03125,0.0,0.0,0.0
655007684,523467,0,1.013671875,-0.03125,0.005859375,-0.025390625,0.0,0.0,0.0
655008934,523468,0,1.005859375,-0.0390625,-0.001953125,-0.041015625,0.0,0.0,0.0
655010185,523469,0,1.009765625,-0.0390625,0.0,-0.0390625,0.0,0.0,0.0
655011436,523470,0,1.0,-0.03515625,0.013671875,-0.021484375,0.0,0.0,0.0
655012687,523471,0,0.998046875,-0.029296875,0.009765625,-0.01953125,0.0,0.0,0.0
655013937,523472,0,1.009765625,-0.033203125,0.0078125,-0.025390625,0.0,0.0,0.0
655015187,523473,0,1.005859375,-0.033203125,0.009765625,-0.0234375,0.0,0.0,0.0
655016439,523474,0,1.001953125,-0.03515625,0.009765625,-0.025390625,0.0,0.0,0.0
655017690,523475,0,1.00390625,-0.033203125,0.001953125,-0.03125,0.0,0.0,0.0
655018940,523476,0,1.0,-0.037109375,0.013671875,-0.0234375,0.0,0.0,0.0
655020192,523477,0,1.001953125,-0.03515625,0.015625,-0.01953125,0.0,0.0,0.0
655021443,523478,0,1.005859375,-0.03515625,0.009765625,-0.025390625,0.0,0.0,0.0
655022694,523479,0,1.0078125,-0.03125,0.0078125,-0.0234375,0.0,0.0,0.0
655023944,523480,0,1.001953125,-0.03125,0.0078125,-0.0234375,0.0,0.0,0.0
655025194,523481,0,1.0,-0.033203125,0.0078125,-0.025390625,0.0,0.0,0.0
655026445,523482,0,1.001953125,-0.03515625,0.013671875,-0.021484375,0.0,0.0,0.0
655027697,523483,0,1.0078125,-0.03125,0.005859375,-0.025390625,0.0,0.0,0.0
655028947,523484,0,1.001953125,-0.033203125,0.015625,-0.017578125,0.0,0.0,0.0
655030199,523485,0,0.998046875,-0.03515625,0.009765625,-0.025390625,0.0,0.0,0.0
655031449,523486,0,1.005859375,-0.037109375,0.001953125,-0.03515625,0.0,0.0,0.0
655032701,523487,0,1.0078125,-0.0234375,0.01171875,-0.01171875,0.0,0.0,0.0
655033951,523488,0,1.005859375,-0.037109375,0.013671875,-0.0234375,0.0,0.0,0.0
655035202,523489,0,0.994140625,-0.03125,0.013671875,-0.017578125,0.0,0.0,0.0
655036454,523490,0,1.00390625,-0.03515625,0.005859375,-0.029296875,0.0,0.0,0.0
655037704,523491,0,1.0,-0.033203125,0.009765625,-0.0234375,0.0,0.0,0.0
655038955,523492,0,1.001953125,-0.033203125,0.021484375,-0.01171875,0.0,0.0,0.0
655040206,523493,0,1.00390625,-0.03515625,0.015625,-0.01953125,0.0,0.0,0.0
655041457,523494,0,1.0078125,-0.029296875,0.015625,-0.013671875,0.0,0.0,0.0
655042708,523495,0,1.005859375,-0.029296875,0.005859375,-0.0234375,0.0,0.0,0.0
655043959,523496,0,1.0078125,-0.03515625,0.01171875,-0.0234375,0.0,0.0,0.0
655045211,523497,0,1.00390625,-0.02734375,0.005859375,-0.021484375,0.0,0.0,0.0
655046463,523498,0,1.0078125,-0.03125,0.009765625,-0.021484375,0.0,0.0,0.0
655047713,523499,0,1.001953125,-0.03125,0.01171875,-0.01953125,0.0,0.0,0.0
655048965,523500,0,1.0078125,-0.03125,0.013671875,-0.017578125,0.0,0.0,0.0
655050215,523501,0,1.005859375,-0.033203125,0.009765625,-0.0234375,0.0,0.0,0.0
655051466,523502,0,1.001953125,-0.029296875,0.009765625,-0.01953125,0.0,0.0,0.0
655052716,523503,0,1.005859375,-0.029296875,0.009765625,-0.01953125,0.0,0.0,0.0
655053966,523504,0,1.0,-0.02734375,0.013671875,-0.013671875,0.0,0.0,0.0
655055216,523505,0,1.0078125,-0.03125,0.015625,-0.015625,0.0,0.0,0.0
655056468,523506,0,1.015625,-0.029296875,0.009765625,-0.01953125,0.0,0.0,0.0
655057719,523507,0,1.0,-0.025390625,0.01171875,-0.013671875,0.0,0.0,0.0
655058969,523508,0,1.00390625,-0.02734375,0.005859375,-0.021484375,0.0,0.0,0.0
655060221,523509,0,1.013671875,-0.033203125,0.00390625,-0.029296875,0.0,0.0,0.0
655061471,523510,0,1.005859375,-0.03515625,0.009765625,-0.025390625,0.0,0.0,0.0
655062723,523511,0,1.005859375,-0.03125,0.0078125,-0.0234375,0.0,0.0,0.0
655063973,523512,0,1.0078125,-0.02734375,0.01171875,-0.015625,0.0,0.0,0.0
655065225,523513,0,0.998046875,-0.029296875,0.01171875,-0.017578125,0.0,0.0,0.0
655066476,523514,0,1.01171875,-0.03515625,0.0078125,-0.02734375,0.0,0.0,0.0
655067727,523515,0,1.0078125,-0.03515625,0.0078125,-0.02734375,0.0,0.0,0.0
655068977,523516,0,1.001953125,-0.033203125,0.005859375,-0.02734375,0.0,0.0,0.0
655070228,523517,0,1.0,-0.029296875,0.005859375,-0.0234375,0.0,0.0,0.0
655071479,523518,0,1.00390625,-0.0390625,0.015625,-0.0234375,0.0,0.0,0.0
655072730,523519,0,1.00390625,-0.03515625,0.005859375,-0.029296875,0.0,0.0,0.0
655073981,523520,0,0.99609375,-0.029296875,0.0078125,-0.021484375,0.0,0.0,0.0
655075233,523521,0,1.005859375,-0.03125,0.005859375,-0.025390625,0.0,0.0,0.0
655076484,523522,0,1.005859375,-0.03515625,0.015625,-0.01953125,0.0,0.0,0.0
655077734,523523,0,0.998046875,-0.033203125,0.0078125,-0.025390625,0.0,0.0,0.0
655078984,523524,0,1.00390625,-0.037109375,0.009765625,-0.02734375,0.0,0.0,0.0
655080235,523525,0,1.005859375,-0.03515625,0.01171875,-0.0234375,0.0,0.0,0.0
655081486,523526,0,1.0078125,-0.037109375,0.0078125,-0.029296875,0.0,0.0,0.0
655082737,523527,0,1.0,-0.029296875,0.005859375,-0.0234375,0.0,0.0,0.0
655083987,523528,0,1.009765625,-0.03125,0.017578125,-0.013671875,0.0,0.0,0.0
655085238,523529,0,1.009765625,-0.029296875,0.013671875,-0.015625,0.0,0.0,0.0
655086489,523530,0,1.01171875,-0.03125,0.00390625,-0.02734375,0.0,0.0,0.0
655087740,523531,0,1.005859375,-0.037109375,0.009765625,-0.02734375,0.0,0.0,0.0
655088992,523532,0,0.994140625,-0.03125,0.005859375,-0.025390625,0.0,0.0,0.0
655090242,523533,0,1.00390625,-0.033203125,0.009765625,-0.0234375,0.0,0.0,0.0
655091493,523534,0,1.0078125,-0.03515625,0.01171875,-0.0234375,0.0,0.0,0.0
655092744,523535,0,1.0,-0.03515625,0.001953125,-0.033203125,0.0,0.0,0.0
655093994,523536,0,1.005859375,-0.037109375,0.0078125,-0.029296875,0.0,0.0,0.0
655095245,523537,0,1.005859375,-0.03515625,0.0078125,-0.02734375,0.0,0.0,0.0
655096497,523538,0,1.001953125,-0.033203125,0.015625,-0.017578125,0.0,0.0,0.0
655097749,523539,0,1.00390625,-0.03515625,0.01171875,-0.0234375,0.0,0.0,0.0
655098999,523540,0,1.005859375,-0.037109375,0.017578125,-0.01953125,0.0,0.0,0.0
655100250,523541,0,1.001953125,-0.037109375,0.013671875,-0.0234375,0.0,0.0,0.0
655101500,523542,0,1.005859375,-0.033203125,0.0078125,-0.025390625,0.0,0.0,0.0
655102752,523543,0,1.00390625,-0.033203125,0.0078125,-0.025390625,0.0,0.0,0.0
655104003,523544,0,1.001953125,-0.033203125,0.009765625,-0.0234375,0.0,0.0,0.0
655105254,523545,0,1.009765625,-0.02734375,0.0078125,-0.01953125,0.0,0.0,0.0
655106504,523546,0,1.001953125,-0.03515625,0.01171875,-0.0234375,0.0,0.0,0.0
655107756,523547,0,0.99609375,-0.037109375,0.00390625,-0.033203125,0.0,0.0,0.0
655109006,523548,0,1.0,-0.03125,0.0,-0.03125,0.0,0.0,0.0
655110257,523549,0,1.01171875,-0.033203125,0.009765625,-0.0234375,0.0,0.0,0.0
655111508,523550,0,1.013671875,-0.03515625,0.0078125,-0.02734375,0.0,0.0,0.0
655112759,523551,0,1.00390625,-0.03125,0.005859375,-0.025390625,0.0,0.0,0.0
655114009,523552,0,1.0078125,-0.03125,0.0078125,-0.0234375,0.0,0.0,0.0
655115259,523553,0,0.998046875,-0.03515625,0.005859375,-0.029296875,0.0,0.0,0.0
655116510,523554,0,1.013671875,-0.03125,0.013671875,-0.017578125,0.0,0.0,0.0
655117762,523555,0,0.9921875,-0.03515625,0.017578125,-0.017578125,0.0,0.0,0.0
655119013,523556,0,1.005859375,-0.03515625,0.01171875,-0.0234375,0.0,0.0,0.0
655120271,523557,0,1.009765625,-0.03515625,0.009765625,-0.025390625,0.0,0.0,0.0
655121522,523558,0,1.005859375,-0.033203125,0.0078125,-0.025390625,0.0,0.0,0.0
655122773,523559,0,1.00390625,-0.029296875,0.0078125,-0.021484375,0.0,0.0,0.0
655124025,523560,0,1.001953125,-0.03515625,0.01171875,-0.0234375,0.0,0.0,0.0
655125277,523561,0,1.0,-0.033203125,0.009765625,-0.0234375,0.0,0.0,0.0
655126528,523562,0,0.998046875,-0.03515625,0.0078125,-0.02734375,0.0,0.0,0.0
655127779,523563,0,0.998046875,-0.037109375,0.009765625,-0.02734375,0.0,0.0,0.0
655129031,523564,0,1.0078125,-0.029296875,0.013671875,-0.015625,0.0,0.0,0.0
655130283,523565,0,1.00390625,-0.02734375,0.005859375,-0.021484375,0.0,0.0,0.0
655131535,523566,0,0.998046875,-0.03125,0.015625,-0.015625,0.0,0.0,0.0
655132786,523567,0,1.005859375,-0.037109375,0.013671875,-0.0234375,0.0,0.0,0.0
655134036,523568,0,1.009765625,-0.03125,0.013671875,-0.017578125,0.0,0.0,0.0
655135287,523569,0,1.005859375,-0.025390625,0.009765625,-0.015625,0.0,0.0,0.0
655136537,523570,0,1.005859375,-0.03125,0.005859375,-0.025390625,0.0,0.0,0.0
655137787,523571,0,1.001953125,-0.029296875,0.0078125,-0.021484375,0.0,0.0,0.0
655139038,523572,0,1.009765625,-0.033203125,0.0078125,-0.025390625,0.0,0.0,0.0
655140289,523573,0,1.0078125,-0.029296875,0.005859375,-0.0234375,0.0,0.0,0.0
655141539,523574,0,1.0,-0.0234375,0.0078125,-0.015625,0.0,0.0,0.0
655142790,523575,0,1.001953125,-0.025390625,0.01171875,-0.013671875,0.0,0.0,0.0
655144042,523576,0,1.009765625,-0.021484375,0.017578125,-0.00390625,0.0,0.0,0.0
655145292,523577,0,0.99609375,-0.02734375,0.01171875,-0.015625,0.0,0.0,0.0
655146543,523578,0,1.009765625,-0.02734375,0.013671875,-0.013671875,0.0,0.0,0.0
655147794,523579,0,1.005859375,-0.02734375,0.017578125,-0.009765625,0.0,0.0,0.0
655149044,523580,0,1.00390625,-0.033203125,0.009765625,-0.0234375,0.0,0.0,0.0
655150294,523581,0,1.009765625,-0.033203125,0.0078125,-0.025390625,0.0,0.0,0.0
655151544,523582,0,1.0078125,-0.033203125,0.009765625,-0.0234375,0.0,0.0,0.0
655152796,523583,0,1.001953125,-0.037109375,0.01171875,-0.025390625,0.0,0.0,0.0
655154047,523584,0,0.994140625,-0.041015625,0.0078125,-0.033203125,0.0,0.0,0.0
655155297,523585,0,1.0,-0.046875,0.0078125,-0.0390625,0.0,0.0,0.0
655156548,523586,0,1.0,-0.04296875,0.01171875,-0.03125,0.0,0.0,0.0
655157800,523587,0,1.001953125,-0.04296875,0.001953125,-0.041015625,0.0,0.0,0.0
655159050,523588,0,1.009765625,-0.037109375,0.0078125,-0.029296875,0.0,0.0,0.0
655160300,523589,0,1.0,-0.0390625,0.001953125,-0.037109375,0.0,0.0,0.0
655161550,523590,0,1.01171875,-0.03515625,0.005859375,-0.029296875,0.0,0.0,0.0
655162801,523591,0,1.0,-0.033203125,0.005859375,-0.02734375,0.0,0.0,0.0
655164052,523592,0,1.00390625,-0.033203125,0.015625,-0.017578125,0.0,0.0,0.0
655165302,523593,0,1.005859375,-0.0234375,0.01171875,-0.01171875,0.0,0.0,0.0
655166553,523594,0,1.0078125,-0.021484375,0.015625,-0.005859375,0.0,0.0,0.0
655167804,523595,0,1.005859375,-0.0234375,0.013671875,-0.009765625,0.0,0.0,0.0
655169054,523596,0,1.00390625,-0.025390625,0.01171875,-0.013671875,0.0,0.0,0.0
655170305,523597,0,1.0078125,-0.0234375,0.01171875,-0.01171875,0.0,0.0,0.0
655171556,523598,0,1.001953125,-0.025390625,0.013671875,-0.01171875,0.0,0.0,0.0
655172807,523599,0,0.994140625,-0.025390625,0.01171875,-0.013671875,0.0,0.0,0.0
655174058,523600,0,0.998046875,-0.029296875,0.013671875,-0.015625,0.0,0.0,0.0
655175310,523601,0,1.0,-0.03515625,0.01171875,-0.0234375,0.0,0.0,0.0
655176560,523602,0,0.998046875,-0.037109375,0.013671875,-0.0234375,0.0,0.0,0.0
655177810,523603,0,0.998046875,-0.0390625,0.01171875,-0.02734375,0.0,0.0,0.0
655179060,523604,0,1.005859375,-0.0390625,0.0078125,-0.03125,0.0,0.0,0.0
655180311,523605,0,1.0078125,-0.0390625,0.005859375,-0.033203125,0.0,0.0,0.0
655181561,523606,0,0.998046875,-0.037109375,0.005859375,-0.03125,0.0,0.0,0.0
655182813,523607,0,1.00390625,-0.04296875,0.0078125,-0.03515625,0.0,0.0,0.0
655184063,523608,0,1.00390625,-0.03515625,0.005859375,-0.029296875,0.0,0.0,0.0
655185313,523609,0,1.001953125,-0.033203125,0.01171875,-0.021484375,0.0,0.0,0.0
655186565,523610,0,1.005859375,-0.03125,0.00390625,-0.02734375,0.0,0.0,0.0
655187816,523611,0,1.005859375,-0.03125,0.013671875,-0.017578125,0.0,0.0,0.0
655189066,523612,0,1.009765625,-0.029296875,0.013671875,-0.015625,0.0,0.0,0.0
655190316,523613,0,1.00390625,-0.029296875,0.013671875,-0.015625,0.0,0.0,0.0
655191567,523614,0,1.0,-0.02734375,0.005859375,-0.021484375,0.0,0.0,0.0
655192817,523615,0,1.017578125,-0.03125,0.005859375,-0.025390625,0.0,0.0,0.0
655194069,523616,0,1.0,-0.021484375,0.013671875,-0.0078125,0.0,0.0,0.0
655195319,523617,0,1.0,-0.02734375,0.009765625,-0.017578125,0.0,0.0,0.0
655196570,523618,0,1.0,-0.025390625,0.015625,-0.009765625,0.0,0.0,0.0
655197822,523619,0,1.0,-0.025390625,0.0078125,-0.017578125,0.0,0.0,0.0
655199072,523620,0,1.001953125,-0.03125,0.013671875,-0.017578125,0.0,0.0,0.0
655200322,523621,0,1.0,-0.03515625,0.01171875,-0.0234375,0.0,0.0,0.0
655201572,523622,0,1.005859375,-0.033203125,0.01171875,-0.021484375,0.0,0.0,0.0
655202823,523623,0,1.001953125,-0.03125,0.015625,-0.015625,0.0,0.0,0.0
655204075,523624,0,1.00390625,-0.037109375,0.0078125,-0.029296875,0.0,0.0,0.0
655205326,523625,0,1.005859375,-0.0390625,0.005859375,-0.033203125,0.0,0.0,0.0
655206576,523626,0,1.0,-0.0390625,0.01171875,-0.02734375,0.0,0.0,0.0
655207827,523627,0,1.00390625,-0.041015625,0.0078125,-0.033203125,0.0,0.0,0.0
655209077,523628,0,1.00390625,-0.0390625,0.01171875,-0.02734375,0.0,0.0,0.0
655210327,523629,0,1.001953125,-0.0390625,0.013671875,-0.025390625,0.0,0.0,0.0
655211578,523630,0,1.001953125,-0.037109375,0.005859375,-0.03125,0.0,0.0,0.0
655212829,523631,0,1.005859375,-0.0390625,0.013671875,-0.025390625,0.0,0.0,0.0
655214080,523632,0,1.00390625,-0.037109375,0.0078125,-0.029296875,0.0,0.0,0.0
655215332,523633,0,1.005859375,-0.04296875,0.01171875,-0.03125,0.0,0.0,0.0
655216582,523634,0,1.005859375,-0.033203125,0.005859375,-0.02734375,0.0,0.0,0.0
655217834,523635,0,1.0,-0.029296875,0.01171875,-0.017578125,0.0,0.0,0.0
655219085,523636,0,0.994140625,-0.02734375,0.015625,-0.01171875,0.0,0.0,0.0
655220335,523637,0,0.998046875,-0.033203125,0.01953125,-0.013671875,0.0,0.0,0.0
655221586,523638,0,1.001953125,-0.02734375,0.009765625,-0.017578125,0.0,0.0,0.0
655222838,523639,0,0.998046875,-0.033203125,0.009765625,-0.0234375,0.0,0.0,0.0
655224088,523640,0,1.005859375,-0.029296875,0.0078125,-0.021484375,0.0,0.0,0.0
655225338,523641,0,1.0078125,-0.029296875,0.013671875,-0.015625,0.0,0.0,0.0
655226589,523642,0,1.0078125,-0.02734375,0.01171875,-0.015625,0.0,0.0,0.0
655227839,523643,0,1.001953125,-0.029296875,0.0078125,-0.021484375,0.0,0.0,0.0
655229091,523644,0,1.005859375,-0.03125,0.015625,-0.015625,0.0,0.0,0.0
655230341,523645,0,1.001953125,-0.037109375,0.01171875,-0.025390625,0.0,0.0,0.0
655231592,523646,0,1.005859375,-0.0390625,0.017578125,-0.021484375,0.0,0.0,0.0
655232844,523647,0,1.005859375,-0.033203125,0.005859375,-0.02734375,0.0,0.0,0.0
655234094,523648,0,1.005859375,-0.037109375,0.001953125,-0.03515625,0.0,0.0,0.0
655235344,523649,0,1.005859375,-0.03515625,0.005859375,-0.029296875,0.0,0.0,0.0
655236595,523650,0,1.005859375,-0.03515625,0.009765625,-0.025390625,0.0,0.0,0.0
655237846,523651,0,1.001953125,-0.037109375,0.009765625,-0.02734375,0.0,0.0,0.0
655239096,523652,0,1.0,-0.03515625,0.017578125,-0.017578125,0.0,0.0,0.0
655240346,523653,0,1.001953125,-0.033203125,0.01171875,-0.021484375,0.0,0.0,0.0
655241597,523654,0,1.005859375,-0.029296875,0.009765625,-0.01953125,0.0,0.0,0.0
655242847,523655,0,1.0078125,-0.025390625,0.013671875,-0.01171875,0.0,0.0,0.0
655244097,523656,0,1.005859375,-0.03515625,0.001953125,-0.033203125,0.0,0.0,0.0
655245349,523657,0,1.001953125,-0.03125,0.005859375,-0.025390625,0.0,0.0,0.0
655246599,523658,0,1.005859375,-0.029296875,0.009765625,-0.01953125,0.0,0.0,0.0
655247850,523659,0,1.001953125,-0.03125,0.009765625,-0.021484375,0.0,0.0,0.0
655249101,523660,0,0.99609375,-0.03125,0.009765625,-0.021484375,0.0,0.0,0.0
655250351,523661,0,0.9921875,-0.037109375,0.009765625,-0.02734375,0.0,0.0,0.0
655251602,523662,0,1.009765625,-0.029296875,0.013671875,-0.015625,0.0,0.0,0.0
655252853,523663,0,1.005859375,-0.029296875,0.013671875,-0.015625,0.0,0.0,0.0
655254103,523664,0,1.00390625,-0.037109375,0.009765625,-0.02734375,0.0,0.0,0.0
655255355,523665,0,1.00390625,-0.033203125,0.0078125,-0.025390625,0.0,0.0,0.0
655256606,523666,0,1.0,-0.03125,0.013671875,-0.017578125,0.0,0.0,0.0
655257856,523667,0,1.001953125,-0.02734375,0.0078125,-0.01953125,0.0,0.0,0.0
655259108,523668,0,1.005859375,-0.033203125,0.0078125,-0.025390625,0.0,0.0,0.0
655260359,523669,0,1.0078125,-0.037109375,0.015625,-0.021484375,0.0,0.0,0.0
655261610,523670,0,1.0078125,-0.03125,0.013671875,-0.017578125,0.0,0.0,0.0
655262860,523671,0,1.0078125,-0.03125,0.013671875,-0.017578125,0.0,0.0,0.0
655264110,523672,0,1.005859375,-0.029296875,0.013671875,-0.015625,0.0,0.0,0.0
655265362,523673,0,1.0,-0.02734375,0.015625,-0.01171875,0.0,0.0,0.0
655266614,523674,0,1.0,-0.033203125,0.013671875,-0.01953125,0.0,0.0,0.0
655267865,523675,0,1.0,-0.037109375,0.009765625,-0.02734375,0.0,0.0,0.0
655269115,523676,0,1.00390625,-0.03515625,0.00390625,-0.03125,0.0,0.0,0.0
655270366,523677,0,1.01171875,-0.037109375,0.01171875,-0.025390625,0.0,0.0,0.0
655271616,523678,0,1.0,-0.037109375,0.0078125,-0.029296875,0.0,0.0,0.0
655272867,523679,0,0.998046875,-0.033203125,0.009765625,-0.0234375,0.0,0.0,0.0
655274118,523680,0,1.0078125,-0.03515625,0.0078125,-0.02734375,0.0,0.0,0.0
655275368,523681,0,1.005859375,-0.03125,0.005859375,-0.025390625,0.0,0.0,0.0
655276619,523682,0,1.0078125,-0.03515625,0.005859375,-0.029296875,0.0,0.0,0.0
655277871,523683,0,0.998046875,-0.03515625,0.0078125,-0.02734375,0.0,0.0,0.0
655279121,523684,0,0.998046875,-0.0390625,0.009765625,-0.029296875,0.0,0.0,0.0
655280371,523685,0,1.001953125,-0.037109375,0.013671875,-0.0234375,0.0,0.0,0.0
655281623,523686,0,1.009765625,-0.03515625,0.00390625,-0.03125,0.0,0.0,0.0
655282873,523687,0,1.00390625,-0.033203125,0.009765625,-0.0234375,0.0,0.0,0.0
655284124,523688,0,1.001953125,-0.03515625,0.0078125,-0.02734375,0.0,0.0,0.0
655285376,523689,0,1.0,-0.03515625,0.0078125,-0.02734375,0.0,0.0,0.0
655286626,523690,0,1.00390625,-0.037109375,0.0078125,-0.029296875,0.0,0.0,0.0
655287877,523691,0,1.001953125,-0.033203125,0.015625,-0.017578125,0.0,0.0,0.0
655289127,523692,0,1.0078125,-0.033203125,0.015625,-0.017578125,0.0,0.0,0.0
655290377,523693,0,1.00390625,-0.03125,0.01171875,-0.01953125,0.0,0.0,0.0
655291629,523694,0,1.0078125,-0.037109375,0.015625,-0.021484375,0.0,0.0,0.0
655292879,523695,0,1.0078125,-0.03515625,0.005859375,-0.029296875,0.0,0.0,0.0
655294130,523696,0,1.005859375,-0.0390625,0.00390625,-0.03515625,0.0,0.0,0.0
655295381,523697,0,1.0,-0.03515625,0.0078125,-0.02734375,0.0,0.0,0.0
655296631,523698,0,1.009765625,-0.033203125,0.013671875,-0.01953125,0.0,0.0,0.0
655297883,523699,0,1.001953125,-0.029296875,0.013671875,-0.015625,0.0,0.0,0.0
655299134,523700,0,0.998046875,-0.037109375,0.01171875,-0.025390625,0.0,0.0,0.0
655300384,523701,0,1.0078125,-0.03515625,0.021484375,-0.013671875,0.0,0.0,0.0
655301635,523702,0,1.009765625,-0.03515625,0.01171875,-0.0234375,0.0,0.0,0.0
655302887,523703,0,0.994140625,-0.03125,0.005859375,-0.025390625,0.0,0.0,-3.0627843058379075e+37
655305388,523705,0,1.0,-0.03125,0.0078125,-0.0234375,0.0,0.0,0.0
655306639,523706,0,0.998046875,-0.02734375,0.013671875,-0.013671875,0.0,0.0,0.0
655307889,523707,0,1.001953125,-0.033203125,0.009765625,-0.0234375,0.0,0.0,0.0
655309140,523708,0,1.005859375,-0.033203125,0.01171875,-0.021484375,0.0,0.0,0.0
655310392,523709,0,1.005859375,-0.029296875,0.009765625,-0.01953125,0.0,0.0,0.0
655311642,523710,0,1.0078125,-0.029296875,0.015625,-0.013671875,0.0,0.0,0.0
655312894,523711,0,1.001953125,-0.029296875,0.0078125,-0.021484375,0.0,0.0,0.0
655314145,523712,0,1.001953125,-0.03515625,0.0078125,-0.02734375,0.0,0.0,0.0
655315396,523713,0,1.001953125,-0.033203125,0.0078125,-0.025390625,0.0,0.0,0.0
655316647,523714,0,1.005859375,-0.02734375,0.009765625,-0.017578125,0.0,0.0,0.0
655317899,523715,0,0.99609375,-0.03125,0.01171875,-0.01953125,0.0,0.0,0.0
655319150,523716,0,1.00390625,-0.03125,0.0078125,-0.0234375,0.0,0.0,0.0
655320400,523717,0,1.0078125,-0.033203125,0.009765625,-0.0234375,0.0,0.0,0.0
655321652,523718,0,1.005859375,-0.033203125,0.009765625,-0.0234375,0.0,0.0,0.0
655322902,523719,0,1.001953125,-0.03125,0.01171875,-0.01953125,0.0,0.0,0.0
655324152,523720,0,1.00390625,-0.033203125,0.009765625,-0.0234375,0.0,0.0,0.0
655325402,523721,0,1.009765625,-0.0390625,0.0078125,-0.03125,0.0,0.0,0.0
655326653,523722,0,0.99609375,-0.033203125,0.009765625,-0.0234375,0.0,0.0,0.0
655327904,523723,0,0.998046875,-0.037109375,0.005859375,-0.03125,0.0,0.0,0.0
655329154,523724,0,1.0,-0.037109375,0.0,-0.037109375,0.0,0.0,0.0
655330406,523725,0,1.009765625,-0.033203125,0.009765625,-0.0234375,0.0,0.0,0.0
655331657,523726,0,1.00390625,-0.03125,0.0,-0.03125,0.0,0.0,0.0
655332907,523727,0,1.00390625,-0.03515625,0.005859375,-0.029296875,0.0,0.0,0.0
655334158,523728,0,1.005859375,-0.037109375,0.013671875,-0.0234375,0.0,0.0,0.0
655335408,523729,0,0.998046875,-0.03515625,0.01171875,-0.0234375,0.0,0.0,0.0
655336659,523730,0,1.0078125,-0.03515625,0.013671875,-0.021484375,0.0,0.0,0.0
655337910,523731,0,1.0078125,-0.03125,0.009765625,-0.021484375,0.0,0.0,0.0
655339160,523732,0,1.005859375,-0.029296875,0.009765625,-0.01953125,0.0,0.0,0.0
655340410,523733,0,1.005859375,-0.029296875,0.015625,-0.013671875,0.0,0.0,0.0
655341662,523734,0,1.005859375,-0.029296875,0.015625,-0.013671875,0.0,0.0,0.0
655342912,523735,0,1.005859375,-0.03125,0.015625,-0.015625,0.0,0.0,0.0
655344163,523736,0,1.00390625,-0.029296875,0.005859375,-0.0234375,0.0,0.0,0.0
655345413,523737,0,0.99609375,-0.03125,0.01171875,-0.01953125,0.0,0.0,0.0
655346664,523738,0,1.001953125,-0.03125,0.015625,-0.015625,0.0,0.0,0.0
655347915,523739,0,0.99609375,-0.033203125,0.015625,-0.017578125,0.0,0.0,0.0
655349167,523740,0,1.0078125,-0.033203125,0.015625,-0.017578125,0.0,0.0,0.0
655350417,523741,0,1.0,-0.037109375,0.015625,-0.021484375,0.0,0.0,0.0
655351668,523742,0,1.0,-0.03515625,0.017578125,-0.017578125,0.0,0.0,0.0
655352920,523743,0,1.0078125,-0.03515625,0.015625,-0.01953125,0.0,0.0,0.0
655354171,523744,0,0.99609375,-0.03515625,0.009765625,-0.025390625,0.0,0.0,0.0
655355422,523745,0,1.00390625,-0.03125,0.017578125,-0.013671875,0.0,0.0,0.0
655356674,523746,0,1.01171875,-0.03515625,0.013671875,-0.021484375,0.0,0.0,0.0
655357924,523747,0,1.0,-0.03515625,0.0078125,-0.02734375,0.0,0.0,0.0
655359175,523748,0,1.0078125,-0.037109375,0.005859375,-0.03125,0.0,0.0,0.0
655360426,523749,0,1.001953125,-0.041015625,0.009765625,-0.03125,0.0,0.0,0.0
655361677,523750,0,1.00390625,-0.037109375,0.009765625,-0.02734375,0.0,0.0,0.0
655362928,523751,0,1.00390625,-0.037109375,0.013671875,-0.0234375,0.0,0.0,0.0
655364179,523752,0,1.001953125,-0.033203125,0.005859375,-0.02734375,0.0,0.0,0.0
655365431,523753,0,1.0078125,-0.03125,0.01171875,-0.01953125,0.0,0.0,0.0
655366681,523754,0,1.00390625,-0.033203125,0.009765625,-0.0234375,0.0,0.0,0.0
655367932,523755,0,1.009765625,-0.029296875,0.001953125,-0.02734375,0.0,0.0,0.0
655369182,523756,0,1.00390625,-0.029296875,0.01171875,-0.017578125,0.0,0.0,0.0
655370432,523757,0,1.0078125,-0.03125,0.009765625,-0.021484375,0.0,0.0,0.0
655371684,523758,0,1.0078125,-0.029296875,0.01171875,-0.017578125,0.0,0.0,0.0
655372934,523759,0,1.00390625,-0.033203125,0.015625,-0.017578125,0.0,0.0,0.0
655374185,523760,0,1.001953125,-0.029296875,0.013671875,-0.015625,0.0,0.0,0.0
655375436,523761,0,1.005859375,-0.03125,0.01953125,-0.01171875,0.0,0.0,0.0
655376687,523762,0,1.0078125,-0.03125,0.01171875,-0.01953125,0.0,0.0,0.0
655377937,523763,0,0.99609375,-0.03125,0.005859375,-0.025390625,0.0,0.0,0.0
655379187,523764,0,1.005859375,-0.03125,0.009765625,-0.021484375,0.0,0.0,0.0
655380439,523765,0,1.0078125,-0.033203125,0.009765625,-0.0234375,0.0,0.0,0.0
655381690,523766,0,1.013671875,-0.03515625,0.0078125,-0.02734375,0.0,0.0,0.0
655382940,523767,0,1.0,-0.037109375,0.001953125,-0.03515625,0.0,0.0,0.0
655384192,523768,0,1.001953125,-0.037109375,0.0078125,-0.029296875,0.0,0.0,0.0
655385443,523769,0,1.00390625,-0.0390625,0.0078125,-0.03125,0.0,0.0,0.0
655386694,523770,0,1.0078125,-0.03515625,0.005859375,-0.029296875,0.0,0.0,0.0
655387944,523771,0,1.0078125,-0.037109375,0.013671875,-0.0234375,0.0,0.0,0.0
655389194,523772,0,1.0078125,-0.03515625,0.01171875,-0.0234375,0.0,0.0,0.0
655390445,523773,0,1.005859375,-0.03515625,0.0078125,-0.02734375,0.0,0.0,0.0
655391697,523774,0,1.00390625,-0.037109375,0.013671875,-0.0234375,0.0,0.0,0.0
655392947,523775,0,1.005859375,-0.03125,0.0078125,-0.0234375,0.0,0.0,0.0
655394199,523776,0,1.00390625,-0.03125,0.009765625,-0.021484375,0.0,0.0,0.0
655395449,523777,0,1.00390625,-0.033203125,0.009765625,-0.0234375,0.0,0.0,0.0
655396701,523778,0,1.0,-0.02734375,0.013671875,-0.013671875,0.0,0.0,0.0
655397951,523779,0,1.005859375,-0.029296875,0.021484375,-0.0078125,0.0,0.0,0.0
655399202,523780,0,1.0,-0.029296875,0.009765625,-0.01953125,0.0,0.0,0.0
655400454,523781,0,1.001953125,-0.033203125,0.01171875,-0.021484375,0.0,0.0,0.0
655401704,523782,0,1.009765625,-0.025390625,0.009765625,-0.015625,0.0,0.0,0.0
655402955,523783,0,1.0,-0.029296875,0.005859375,-0.0234375,0.0,0.0,0.0
655404206,523784,0,1.0,-0.02734375,0.015625,-0.01171875,0.0,0.0,0.0
655405457,523785,0,1.005859375,-0.02734375,0.015625,-0.01171875,0.0,0.0,0.0
655406708,523786,0,1.005859375,-0.037109375,0.005859375,-0.03125,0.0,0.0,0.0
655407959,523787,0,0.998046875,-0.033203125,0.013671875,-0.01953125,0.0,0.0,0.0
655409211,523788,0,1.00390625,-0.029296875,0.013671875,-0.015625,0.0,0.0,0.0
655410463,523789,0,1.00390625,-0.033203125,0.00390625,-0.029296875,0.0,0.0,0.0
655411713,523790,0,1.00390625,-0.02734375,0.0078125,-0.01953125,0.0,0.0,0.0
655412965,523791,0,1.013671875,-0.033203125,0.0078125,-0.025390625,0.0,0.0,0.0
655414215,523792,0,1.00390625,-0.029296875,0.013671875,-0.015625,0.0,0.0,0.0
655415466,523793,0,1.00390625,-0.033203125,0.0078125,-0.025390625,0.0,0.0,0.0
655416716,523794,0,1.001953125,-0.03515625,0.009765625,-0.025390625,0.0,0.0,0.0
655417966,523795,0,1.00390625,-0.03515625,0.01171875,-0.0234375,0.0,0.0,0.0
655419216,523796,0,1.005859375,-0.029296875,0.01171875,-0.017578125,0.0,0.0,0.0
655420468,523797,0,1.00390625,-0.03125,0.015625,-0.015625,0.0,0.0,0.0
655421719,523798,0,1.001953125,-0.03125,0.01171875,-0.01953125,0.0,0.0,0.0
655422969,523799,0,1.00390625,-0.03125,0.015625,-0.015625,0.0,0.0,0.0
655424221,523800,0,1.00390625,-0.03515625,0.01171875,-0.0234375,0.0,0.0,0.0
655425471,523801,0,1.0,-0.03125,0.01171875,-0.01953125,0.0,0.0,0.0
655426723,523802,0,1.001953125,-0.03125,0.009765625,-0.021484375,0.0,0.0,0.0
655427973,523803,0,1.00390625,-0.03125,0.0078125,-0.0234375,0.0,0.0,0.0
655429225,523804,0,1.0,-0.029296875,0.01171875,-0.017578125,0.0,0.0,0.0
655430476,523805,0,1.005859375,-0.02734375,0.009765625,-0.017578125,0.0,0.0,0.0
655431727,523806,0,1.0078125,-0.03515625,0.009765625,-0.025390625,0.0,0.0,0.0
655432977,523807,0,1.009765625,-0.03515625,0.005859375,-0.029296875,0.0,0.0,0.0
655434228,523808,0,1.00390625,-0.02734375,0.013671875,-0.013671875,0.0,0.0,0.0
655435479,523809,0,1.0078125,-0.03515625,0.013671875,-0.021484375,0.0,0.0,0.0
655436730,523810,0,1.0078125,-0.025390625,0.0078125,-0.017578125,0.0,0.0,0.0
655437981,523811,0,1.001953125,-0.029296875,0.021484375,-0.0078125,0.0,0.0,0.0
655439233,523812,0,1.001953125,-0.029296875,0.013671875,-0.015625,0.0,0.0,0.0
655440484,523813,0,1.0,-0.029296875,0.009765625,-0.01953125,0.0,0.0,0.0
655441734,523814,0,1.001953125,-0.02734375,0.0078125,-0.01953125,0.0,0.0,0.0
655442984,523815,0,1.005859375,-0.029296875,0.013671875,-0.015625,0.0,0.0,0.0
655444235,523816,0,1.0078125,-0.029296875,0.009765625,-0.01953125,0.0,0.0,0.0
655445486,523817,0,1.0078125,-0.03125,0.015625,-0.015625,0.0,0.0,0.0
655446737,523818,0,1.009765625,-0.03515625,0.0078125,-0.02734375,0.0,0.0,0.0
655447987,523819,0,1.001953125,-0.033203125,0.005859375,-0.02734375,0.0,0.0,0.0
655449238,523820,0,1.00390625,-0.033203125,0.0078125,-0.025390625,0.0,0.0,0.0
655450489,523821,0,1.005859375,-0.037109375,0.009765625,-0.02734375,0.0,0.0,0.0
655451740,523822,0,1.013671875,-0.033203125,0.009765625,-0.0234375,0.0,0.0,0.0
655452992,523823,0,0.998046875,-0.037109375,0.009765625,-0.02734375,0.0,0.0,0.0
655454242,523824,0,1.0,-0.03515625,0.013671875,-0.021484375,0.0,0.0,0.0
655455493,523825,0,1.005859375,-0.033203125,0.0078125,-0.025390625,0.0,0.0,0.0
655456744,523826,0,1.0078125,-0.033203125,0.0078125,-0.025390625,0.0,0.0,0.0
655457994,523827,0,1.00390625,-0.03515625,0.013671875,-0.021484375,0.0,0.0,0.0
655459245,523828,0,1.001953125,-0.03125,0.0078125,-0.0234375,0.0,0.0,0.0
655460497,523829,0,1.0,-0.033203125,0.005859375,-0.02734375,0.0,0.0,0.0
655461749,523830,0,0.994140625,-0.037109375,0.009765625,-0.02734375,0.0,0.0,0.0
655462999,523831,0,1.0078125,-0.033203125,0.005859375,-0.02734375,0.0,0.0,0.0
655464250,523832,0,1.0078125,-0.037109375,0.009765625,-0.02734375,0.0,0.0,0.0
655465500,523833,0,1.00390625,-0.03125,0.013671875,-0.017578125,0.0,0.0,0.0
655466752,523834,0,1.001953125,-0.03125,0.013671875,-0.017578125,0.0,0.0,0.0
655468003,523835,0,1.00390625,-0.029296875,0.013671875,-0.015625,0.0,0.0,0.0
655469254,523836,0,1.005859375,-0.033203125,0.009765625,-0.0234375,0.0,0.0,0.0
655470504,523837,0,1.001953125,-0.029296875,0.013671875,-0.015625,0.0,0.0,0.0
655471756,523838,0,1.005859375,-0.03515625,0.013671875,-0.021484375,0.0,0.0,0.0
655473006,523839,0,1.005859375,-0.03125,0.0078125,-0.0234375,0.0,0.0,0.0
655474257,523840,0,1.0,-0.03515625,0.009765625,-0.025390625,0.0,0.0,0.0
655475508,523841,0,1.00390625,-0.03515625,0.0078125,-0.02734375,0.0,0.0,0.0
655476759,523842,0,1.0078125,-0.041015625,0.013671875,-0.02734375,0.0,0.0,0.0
655478009,523843,0,1.0078125,-0.03515625,0.0078125,-0.02734375,0.0,0.0,0.0
655479259,523844,0,1.005859375,-0.033203125,0.01171875,-0.021484375,0.0,0.0,0.0
655480510,523845,0,1.0078125,-0.037109375,0.009765625,-0.02734375,0.0,0.0,0.0
655481762,523846,0,1.001953125,-0.03515625,0.01171875,-0.0234375,0.0,0.0,0.0
655483013,523847,0,1.009765625,-0.03125,0.00390625,-0.02734375,0.0,0.0,0.0
655484271,523848,0,1.0078125,-0.041015625,0.009765625,-0.03125,0.0,0.0,0.0
655485522,523849,0,1.005859375,-0.03515625,0.0078125,-0.02734375,0.0,0.0,0.0
655486773,523850,0,1.013671875,-0.041015625,0.0,-0.041015625,0.0,0.0,0.0
655488025,523851,0,1.015625,-0.033203125,-0.03515625,-0.068359375,0.0,0.0,0.0
655489277,523852,0,0.99609375,-0.029296875,0.0078125,-0.021484375,0.0,0.0,0.0
655490528,523853,0,1.0,-0.0390625,0.0078125,-0.03125,0.0,0.0,0.0
655491779,523854,0,1.009765625,-0.033203125,0.01171875,-0.021484375,0.0,0.0,0.0
655493031,523855,0,1.0078125,-0.029296875,0.015625,-0.013671875,0.0,0.0,0.0
655494283,523856,0,1.0078125,-0.03515625,0.009765625,-0.025390625,0.0,0.0,0.0
655495535,523857,0,1.009765625,-0.03125,0.01171875,-0.01953125,0.0,0.0,0.0
655496786,523858,0,1.001953125,-0.029296875,0.013671875,-0.015625,0.0,0.0,0.0
655498036,523859,0,1.005859375,-0.03515625,0.01171875,-0.0234375,0.0,0.0,0.0
655499287,523860,0,1.0,-0.03515625,0.01171875,-0.0234375,0.0,0.0,0.0
655500537,523861,0,1.001953125,-0.033203125,0.013671875,-0.01953125,0.0,0.0,0.0
655501787,523862,0,1.005859375,-0.03515625,0.0078125,-0.02734375,0.0,0.0,0.0
655503038,523863,0,1.005859375,-0.03515625,0.005859375,-0.029296875,0.0,0.0,0.0
655504289,523864,0,1.0,-0.02734375,0.01171875,-0.015625,0.0,0.0,0.0
655505539,523865,0,1.005859375,-0.033203125,0.0078125,-0.025390625,0.0,0.0,0.0
655506790,523866,0,1.001953125,-0.03125,0.01171875,-0.01953125,0.0,0.0,0.0
655508042,523867,0,1.0078125,-0.029296875,0.009765625,-0.01953125,0.0,0.0,0.0
655509292,523868,0,1.005859375,-0.03515625,0.005859375,-0.029296875,0.0,0.0,0.0
655510543,523869,0,1.01171875,-0.03125,0.001953125,-0.029296875,0.0,0.0,0.0
655511794,523870,0,1.001953125,-0.033203125,0.009765625,-0.0234375,0.0,0.0,0.0
655513044,523871,0,1.00390625,-0.03125,0.01171875,-0.01953125,0.0,0.0,0.0
655514294,523872,0,1.00390625,-0.03125,0.017578125,-0.013671875,0.0,0.0,0.0
655515544,523873,0,0.99609375,-0.037109375,0.005859375,-0.03125,0.0,0.0,0.0
655516796,523874,0,0.998046875,-0.02734375,0.005859375,-0.021484375,0.0,0.0,0.0
655518047,523875,0,1.005859375,-0.037109375,0.005859375,-0.03125,0.0,0.0,0.0
655519297,523876,0,1.00390625,-0.03515625,0.015625,-0.01953125,0.0,0.0,0.0
