t_us,frame_id,sensor_id,accX,accY,accZ,acc_sum_YZ,magX,magY,magZ
995207879,795440,0,1.001953125,-0.033203125,0.01953125,-0.013671875,0.0,0.0,0.0
995209130,795441,0,1.0078125,-0.037109375,0.01171875,-0.025390625,0.0,0.0,0.0
995210381,795442,0,1.01171875,-0.033203125,0.02734375,-0.005859375,0.0,0.0,0.0
995211631,795443,0,1.00390625,-0.03515625,0.01953125,-0.015625,0.0,0.0,0.0
995212882,795444,0,1.017578125,-0.0390625,0.01171875,-0.02734375,0.0,0.0,0.0
995214134,795445,0,1.009765625,-0.037109375,0.01171875,-0.025390625,0.0,0.0,0.0
995215384,795446,0,1.01171875,-0.037109375,0.015625,-0.021484375,0.0,0.0,0.0
995216635,795447,0,1.009765625,-0.0390625,0.017578125,-0.021484375,0.0,0.0,0.0
995217887,795448,0,1.00390625,-0.03515625,0.01953125,-0.015625,0.0,0.0,0.0
995219137,795449,0,1.001953125,-0.033203125,0.015625,-0.017578125,0.0,0.0,0.0
995220388,795450,0,1.001953125,-0.037109375,0.013671875,-0.0234375,0.0,0.0,0.0
995221639,795451,0,1.009765625,-0.037109375,0.01171875,-0.025390625,0.0,0.0,0.0
995222889,795452,0,1.009765625,-0.037109375,0.01953125,-0.017578125,0.0,0.0,0.0
995224140,795453,0,1.0078125,-0.033203125,0.015625,-0.017578125,0.0,0.0,0.0
995225392,795454,0,1.001953125,-0.03125,0.013671875,-0.017578125,0.0,0.0,0.0
995226642,795455,0,0.998046875,-0.03515625,0.013671875,-0.021484375,0.0,0.0,0.0
995227894,795456,0,1.0078125,-0.033203125,0.017578125,-0.015625,0.0,0.0,0.0
995229145,795457,0,1.001953125,-0.037109375,0.01953125,-0.017578125,0.0,0.0,0.0
995230396,795458,0,1.00390625,-0.033203125,0.01953125,-0.013671875,0.0,0.0,0.0
995231647,795459,0,1.005859375,-0.033203125,0.017578125,-0.015625,0.0,0.0,0.0
995232899,795460,0,1.001953125,-0.033203125,0.01171875,-0.021484375,0.0,0.0,0.0
995234150,795461,0,1.0078125,-0.033203125,0.01171875,-0.021484375,0.0,0.0,0.0
995235400,795462,0,1.005859375,-0.0390625,0.005859375,-0.033203125,0.0,0.0,0.0
995236652,795463,0,1.0,-0.037109375,0.01953125,-0.017578125,0.0,0.0,0.0
995237902,795464,0,1.005859375,-0.033203125,0.01953125,-0.013671875,0.0,0.0,0.0
995239152,795465,0,1.01171875,-0.037109375,0.01171875,-0.025390625,0.0,0.0,0.0
995240402,795466,0,1.0078125,-0.041015625,0.013671875,-0.02734375,0.0,0.0,0.0
995241653,795467,0,1.009765625,-0.037109375,-0.0078125,-0.044921875,0.0,0.0,0.0
995242904,795468,0,1.00390625,-0.03125,0.01953125,-0.01171875,0.0,0.0,0.0
995244154,795469,0,1.013671875,-0.0390625,0.015625,-0.0234375,0.0,0.0,0.0
995245406,795470,0,1.00390625,-0.037109375,0.013671875,-0.0234375,0.0,0.0,0.0
995246657,795471,0,1.005859375,-0.037109375,0.01953125,-0.017578125,0.0,0.0,0.0
995247907,795472,0,1.00390625,-0.037109375,0.015625,-0.021484375,0.0,0.0,0.0
995249158,795473,0,1.0078125,-0.037109375,0.009765625,-0.02734375,0.0,0.0,0.0
995250408,795474,0,1.0078125,-0.037109375,0.0078125,-0.029296875,0.0,0.0,0.0
995251659,795475,0,1.001953125,-0.037109375,0.01953125,-0.017578125,0.0,0.0,0.0
995252910,795476,0,1.00390625,-0.03515625,0.01953125,-0.015625,0.0,0.0,0.0
995254160,795477,0,1.001953125,-0.033203125,0.01953125,-0.013671875,0.0,0.0,0.0
995255410,795478,0,1.009765625,-0.037109375,0.021484375,-0.015625,0.0,0.0,0.0
995256662,795479,0,1.0078125,-0.037109375,0.01171875,-0.025390625,0.0,0.0,0.0
995257912,795480,0,1.0078125,-0.03515625,0.015625,-0.01953125,0.0,0.0,0.0
995259163,795481,0,1.0,-0.037109375,0.017578125,-0.01953125,0.0,0.0,0.0
995260413,795482,0,1.0,-0.033203125,0.01953125,-0.013671875,0.0,0.0,0.0
995261664,795483,0,1.005859375,-0.041015625,0.01953125,-0.021484375,0.0,0.0,0.0
995262915,795484,0,0.9921875,-0.041015625,0.015625,-0.025390625,0.0,0.0,0.0
995264167,795485,0,0.99609375,-0.0390625,0.01953125,-0.01953125,0.0,0.0,0.0
995265417,795486,0,0.990234375,-0.03515625,0.01953125,-0.015625,0.0,0.0,0.0
995266668,795487,0,1.005859375,-0.0390625,0.0078125,-0.03125,0.0,0.0,0.0
995267920,795488,0,1.009765625,-0.037109375,0.01171875,-0.025390625,0.0,0.0,0.0
995269171,795489,0,1.0,-0.037109375,0.015625,-0.021484375,0.0,0.0,0.0
995270422,795490,0,0.998046875,-0.03515625,0.015625,-0.01953125,0.0,0.0,0.0
995271674,795491,0,1.00390625,-0.0390625,0.01953125,-0.01953125,0.0,0.0,0.0
995272924,795492,0,1.001953125,-0.033203125,0.013671875,-0.01953125,0.0,0.0,0.0
995274175,795493,0,1.00390625,-0.037109375,0.013671875,-0.0234375,0.0,0.0,0.0
995275426,795494,0,1.0078125,-0.037109375,0.015625,-0.021484375,0.0,0.0,0.0
995276677,795495,0,1.005859375,-0.0390625,0.015625,-0.0234375,0.0,0.0,0.0
995277928,795496,0,1.00390625,-0.037109375,0.021484375,-0.015625,0.0,0.0,0.0
995279179,795497,0,1.0,-0.037109375,0.013671875,-0.0234375,0.0,0.0,0.0
995280431,795498,0,1.001953125,-0.033203125,0.01171875,-0.021484375,0.0,0.0,0.0
995281681,795499,0,1.0078125,-0.041015625,0.009765625,-0.03125,0.0,0.0,0.0
995282932,795500,0,1.00390625,-0.0390625,0.01953125,-0.01953125,0.0,0.0,0.0
995284182,795501,0,1.0,-0.0390625,0.0078125,-0.03125,0.0,0.0,0.0
995285432,795502,0,1.001953125,-0.037109375,0.015625,-0.021484375,0.0,0.0,0.0
995286684,795503,0,0.998046875,-0.041015625,0.01953125,-0.021484375,0.0,0.0,0.0
995287934,795504,0,1.001953125,-0.03515625,0.01171875,-0.0234375,0.0,0.0,0.0
995289185,795505,0,1.0,-0.046875,0.01953125,-0.02734375,0.0,0.0,0.0
995290436,795506,0,1.01171875,-0.037109375,0.01953125,-0.017578125,0.0,0.0,0.0
995291687,795507,0,0.994140625,-0.03515625,0.01171875,-0.0234375,0.0,0.0,0.0
995292937,795508,0,1.001953125,-0.0390625,0.017578125,-0.021484375,0.0,0.0,0.0
995294187,795509,0,1.005859375,-0.033203125,0.01171875,-0.021484375,0.0,0.0,0.0
995295439,795510,0,1.0078125,-0.03515625,0.013671875,-0.021484375,0.0,0.0,0.0
995296690,795511,0,1.00390625,-0.037109375,0.015625,-0.021484375,0.0,0.0,0.0
995297940,795512,0,0.99609375,-0.033203125,0.013671875,-0.01953125,0.0,0.0,0.0
995299192,795513,0,0.998046875,-0.03515625,0.013671875,-0.021484375,0.0,0.0,0.0
995300443,795514,0,1.005859375,-0.037109375,0.01953125,-0.017578125,0.0,0.0,0.0
995301694,795515,0,1.001953125,-0.0390625,0.01171875,-0.02734375,0.0,0.0,0.0
995302944,795516,0,1.005859375,-0.037109375,0.013671875,-0.0234375,0.0,0.0,0.0
995304194,795517,0,1.00390625,-0.033203125,0.01171875,-0.021484375,0.0,0.0,0.0
995305445,795518,0,1.005859375,-0.0390625,0.0078125,-0.03125,0.0,0.0,0.0
995306697,795519,0,1.00390625,-0.037109375,0.005859375,-0.03125,0.0,0.0,0.0
995307947,795520,0,1.00390625,-0.037109375,0.015625,-0.021484375,0.0,0.0,0.0
995309199,795521,0,1.00390625,-0.03515625,0.013671875,-0.021484375,0.0,0.0,0.0
995310449,795522,0,0.998046875,-0.03515625,0.015625,-0.01953125,0.0,0.0,0.0
995311701,795523,0,1.00390625,-0.0390625,0.015625,-0.0234375,0.0,0.0,0.0
995312951,795524,0,1.009765625,-0.0390625,0.015625,-0.0234375,0.0,0.0,0.0
995314202,795525,0,0.998046875,-0.041015625,0.01171875,-0.029296875,0.0,0.0,0.0
995315454,795526,0,1.005859375,-0.03515625,0.015625,-0.01953125,0.0,0.0,0.0
995316704,795527,0,1.0078125,-0.03125,0.01953125,-0.01171875,0.0,0.0,0.0
995317955,795528,0,1.005859375,-0.033203125,0.01953125,-0.013671875,0.0,0.0,0.0
995319206,795529,0,1.013671875,-0.02734375,0.015625,-0.01171875,0.0,0.0,0.0
995320457,795530,0,1.00390625,-0.03515625,0.015625,-0.01953125,0.0,0.0,0.0
995321708,795531,0,1.0,-0.03515625,0.015625,-0.01953125,0.0,0.0,0.0
995322959,795532,0,1.001953125,-0.033203125,0.015625,-0.017578125,0.0,0.0,0.0
995324211,795533,0,1.0,-0.033203125,0.017578125,-0.015625,0.0,0.0,0.0
995325463,795534,0,0.99609375,-0.033203125,0.013671875,-0.01953125,0.0,0.0,0.0
995326713,795535,0,1.005859375,-0.037109375,0.009765625,-0.02734375,0.0,0.0,0.0
995327965,795536,0,1.001953125,-0.037109375,0.017578125,-0.01953125,0.0,0.0,0.0
995329215,795537,0,1.00390625,-0.041015625,0.013671875,-0.02734375,0.0,0.0,0.0
995330466,795538,0,1.0078125,-0.03515625,0.01953125,-0.015625,0.0,0.0,0.0
995331716,795539,0,1.0078125,-0.037109375,0.015625,-0.021484375,0.0,0.0,0.0
995332966,795540,0,1.0,-0.03515625,0.017578125,-0.017578125,0.0,0.0,0.0
995334216,795541,0,1.001953125,-0.03515625,0.01171875,-0.0234375,0.0,0.0,0.0
995335468,795542,0,1.0078125,-0.033203125,0.01171875,-0.021484375,0.0,0.0,0.0
995336719,795543,0,1.001953125,-0.037109375,0.021484375,-0.015625,0.0,0.0,0.0
995337969,795544,0,1.005859375,-0.03515625,0.013671875,-0.021484375,0.0,0.0,0.0
995339221,795545,0,1.005859375,-0.037109375,0.017578125,-0.01953125,0.0,0.0,0.0
995340471,795546,0,1.00390625,-0.037109375,0.017578125,-0.01953125,0.0,0.0,0.0
995341723,795547,0,1.001953125,-0.03515625,0.01953125,-0.015625,0.0,0.0,0.0
995342973,795548,0,1.001953125,-0.04296875,0.009765625,-0.033203125,0.0,0.0,0.0
995344225,795549,0,1.0,-0.03515625,0.0078125,-0.02734375,0.0,0.0,0.0
995345476,795550,0,1.009765625,-0.033203125,0.015625,-0.017578125,0.0,0.0,0.0
995346727,795551,0,1.00390625,-0.037109375,0.01953125,-0.017578125,0.0,0.0,0.0
995347977,795552,0,1.005859375,-0.037109375,0.0234375,-0.013671875,0.0,0.0,0.0
995349228,795553,0,1.001953125,-0.029296875,0.021484375,-0.0078125,0.0,0.0,0.0
995350479,795554,0,1.005859375,-0.037109375,0.013671875,-0.0234375,0.0,0.0,0.0
995351730,795555,0,0.98828125,-0.037109375,0.01953125,-0.017578125,0.0,0.0,0.0
995352981,795556,0,1.005859375,-0.03515625,0.021484375,-0.013671875,0.0,0.0,1.79256159876774e-17
995355484,795558,0,1.0078125,-0.03515625,0.015625,-0.01953125,0.0,0.0,0.0
995356734,795559,0,1.00390625,-0.03515625,0.009765625,-0.025390625,0.0,0.0,0.0
995357984,795560,0,1.001953125,-0.03515625,0.015625,-0.01953125,0.0,0.0,0.0
995359235,795561,0,1.0078125,-0.037109375,0.009765625,-0.02734375,0.0,0.0,0.0
995360486,795562,0,1.0078125,-0.03515625,0.01171875,-0.0234375,0.0,0.0,0.0
995361737,795563,0,1.00390625,-0.033203125,0.013671875,-0.01953125,0.0,0.0,0.0
995362987,795564,0,1.001953125,-0.033203125,0.013671875,-0.01953125,0.0,0.0,0.0
995364238,795565,0,1.00390625,-0.033203125,0.017578125,-0.015625,0.0,0.0,0.0
995365489,795566,0,1.005859375,-0.03515625,0.017578125,-0.017578125,0.0,0.0,0.0
995366740,795567,0,1.001953125,-0.037109375,0.013671875,-0.0234375,0.0,0.0,0.0
995367992,795568,0,1.009765625,-0.037109375,0.013671875,-0.0234375,0.0,0.0,0.0
995369242,795569,0,1.009765625,-0.03515625,0.013671875,-0.021484375,0.0,0.0,0.0
995370493,795570,0,1.009765625,-0.029296875,0.017578125,-0.01171875,0.0,0.0,0.0
995371744,795571,0,1.0078125,-0.0390625,0.005859375,-0.033203125,0.0,0.0,0.0
995372994,795572,0,1.001953125,-0.0390625,0.0078125,-0.03125,0.0,0.0,0.0
995374245,795573,0,1.0,-0.0390625,0.013671875,-0.025390625,0.0,0.0,0.0
995375497,795574,0,0.998046875,-0.0390625,0.01171875,-0.02734375,0.0,0.0,0.0
995376749,795575,0,1.0078125,-0.0390625,0.0078125,-0.03125,0.0,0.0,0.0
995377999,795576,0,1.0,-0.03515625,0.013671875,-0.021484375,0.0,0.0,0.0
995379250,795577,0,1.005859375,-0.0390625,0.01171875,-0.02734375,0.0,0.0,0.0
995380500,795578,0,1.00390625,-0.04296875,0.005859375,-0.037109375,0.0,0.0,0.0
995381752,795579,0,1.0078125,-0.044921875,0.013671875,-0.03125,0.0,0.0,0.0
995383003,795580,0,1.005859375,-0.0390625,0.01171875,-0.02734375,0.0,0.0,0.0
995384254,795581,0,1.00390625,-0.041015625,0.0078125,-0.033203125,0.0,0.0,0.0
995385504,795582,0,1.00390625,-0.041015625,0.017578125,-0.0234375,0.0,0.0,0.0
995386756,795583,0,1.005859375,-0.037109375,0.013671875,-0.0234375,0.0,0.0,0.0
995388006,795584,0,1.00390625,-0.037109375,0.017578125,-0.01953125,0.0,0.0,0.0
995389257,795585,0,1.005859375,-0.037109375,0.015625,-0.021484375,0.0,0.0,0.0
995390508,795586,0,0.998046875,-0.037109375,0.009765625,-0.02734375,0.0,0.0,0.0
995391759,795587,0,1.001953125,-0.041015625,0.013671875,-0.02734375,0.0,0.0,0.0
995393009,795588,0,1.00390625,-0.041015625,0.017578125,-0.0234375,0.0,0.0,0.0
995394259,795589,0,1.00390625,-0.037109375,0.013671875,-0.0234375,0.0,0.0,0.0
995395510,795590,0,1.0078125,-0.0390625,0.01171875,-0.02734375,0.0,0.0,0.0
995396762,795591,0,1.009765625,-0.04296875,0.015625,-0.02734375,0.0,0.0,0.0
995398013,795592,0,1.015625,-0.0390625,0.0078125,-0.03125,0.0,0.0,0.0
995399271,795593,0,1.00390625,-0.041015625,0.0078125,-0.033203125,0.0,0.0,0.0
995400522,795594,0,1.0,-0.0390625,0.017578125,-0.021484375,0.0,0.0,0.0
995401773,795595,0,0.998046875,-0.029296875,0.015625,-0.013671875,0.0,0.0,0.0
995403025,795596,0,1.001953125,-0.03515625,0.005859375,-0.029296875,0.0,0.0,0.0
995404277,795597,0,0.99609375,-0.037109375,0.013671875,-0.0234375,0.0,0.0,0.0
995405528,795598,0,1.0078125,-0.037109375,0.015625,-0.021484375,0.0,0.0,0.0
995406779,795599,0,1.0078125,-0.037109375,0.017578125,-0.01953125,0.0,0.0,0.0
995408031,795600,0,1.001953125,-0.03515625,0.015625,-0.01953125,0.0,0.0,0.0
995409283,795601,0,1.0,-0.041015625,0.017578125,-0.0234375,0.0,0.0,0.0
995410535,795602,0,1.005859375,-0.037109375,0.017578125,-0.01953125,0.0,0.0,0.0
995411786,795603,0,1.00390625,-0.041015625,0.013671875,-0.02734375,0.0,0.0,0.0
995413036,795604,0,1.00390625,-0.0390625,0.017578125,-0.021484375,0.0,0.0,0.0
995414287,795605,0,1.0,-0.04296875,0.015625,-0.02734375,0.0,0.0,0.0
995415537,795606,0,1.001953125,-0.03515625,0.01953125,-0.015625,0.0,0.0,0.0
995416787,795607,0,1.0078125,-0.0390625,0.017578125,-0.021484375,0.0,0.0,0.0
995418038,795608,0,1.0,-0.041015625,0.01953125,-0.021484375,0.0,0.0,0.0
995419289,795609,0,1.0078125,-0.03515625,0.013671875,-0.021484375,0.0,0.0,0.0
995420539,795610,0,1.00390625,-0.037109375,0.009765625,-0.02734375,0.0,0.0,0.0
995421790,795611,0,1.001953125,-0.041015625,0.021484375,-0.01953125,0.0,0.0,0.0
995423042,795612,0,1.0078125,-0.0390625,0.015625,-0.0234375,0.0,0.0,0.0
995424292,795613,0,1.001953125,-0.03515625,0.015625,-0.01953125,0.0,0.0,0.0
995425543,795614,0,1.01171875,-0.03515625,0.013671875,-0.021484375,0.0,0.0,0.0
995426794,795615,0,1.0078125,-0.037109375,0.005859375,-0.03125,0.0,0.0,0.0
995428044,795616,0,1.001953125,-0.0390625,0.009765625,-0.029296875,0.0,0.0,0.0
995429294,795617,0,1.013671875,-0.037109375,0.015625,-0.021484375,0.0,0.0,0.0
995430544,795618,0,0.9921875,-0.037109375,0.015625,-0.021484375,0.0,0.0,0.0
995431796,795619,0,1.009765625,-0.0390625,0.015625,-0.0234375,0.0,0.0,0.0
995433047,795620,0,0.99609375,-0.037109375,0.021484375,-0.015625,0.0,0.0,0.0
995434297,795621,0,1.001953125,-0.03515625,0.01171875,-0.0234375,0.0,0.0,0.0
995435548,795622,0,1.005859375,-0.03515625,0.021484375,-0.013671875,0.0,0.0,0.0
995436800,795623,0,1.00390625,-0.037109375,0.017578125,-0.01953125,0.0,0.0,0.0
995438050,795624,0,1.00390625,-0.0390625,0.015625,-0.0234375,0.0,0.0,0.0
995439300,795625,0,1.005859375,-0.03515625,0.015625,-0.01953125,0.0,0.0,0.0
995440550,795626,0,1.001953125,-0.037109375,0.01171875,-0.025390625,0.0,0.0,0.0
995441801,795627,0,1.001953125,-0.041015625,0.013671875,-0.02734375,0.0,0.0,0.0
995443052,795628,0,0.998046875,-0.033203125,0.015625,-0.017578125,0.0,0.0,0.0
995444302,795629,0,1.00390625,-0.03515625,0.01171875,-0.0234375,0.0,0.0,0.0
995445553,795630,0,0.99609375,-0.037109375,0.015625,-0.021484375,0.0,0.0,0.0
995446804,795631,0,1.00390625,-0.041015625,0.013671875,-0.02734375,0.0,0.0,0.0
995448054,795632,0,1.0078125,-0.044921875,0.01171875,-0.033203125,0.0,0.0,0.0
995449305,795633,0,1.001953125,-0.033203125,0.005859375,-0.02734375,0.0,0.0,0.0
995450556,795634,0,1.0078125,-0.041015625,0.017578125,-0.0234375,0.0,0.0,0.0
995451807,795635,0,0.994140625,-0.0390625,0.015625,-0.0234375,0.0,0.0,0.0
995453058,795636,0,1.005859375,-0.041015625,0.021484375,-0.01953125,0.0,0.0,0.0
995454310,795637,0,0.9921875,-0.037109375,0.0078125,-0.029296875,0.0,0.0,0.0
995455560,795638,0,1.005859375,-0.044921875,0.009765625,-0.03515625,0.0,0.0,0.0
995456810,795639,0,1.0,-0.0390625,0.001953125,-0.037109375,0.0,0.0,0.0
995458060,795640,0,1.0078125,-0.03515625,0.013671875,-0.021484375,0.0,0.0,0.0
995459311,795641,0,1.00390625,-0.0390625,0.01953125,-0.01953125,0.0,0.0,0.0
995460561,795642,0,1.005859375,-0.0390625,0.01171875,-0.02734375,0.0,0.0,0.0
995461813,795643,0,1.0078125,-0.041015625,0.015625,-0.025390625,0.0,0.0,0.0
995463063,795644,0,0.998046875,-0.033203125,0.017578125,-0.015625,0.0,0.0,0.0
995464313,795645,0,1.00390625,-0.037109375,0.017578125,-0.01953125,0.0,0.0,0.0
995465565,795646,0,1.0078125,-0.0390625,0.01171875,-0.02734375,0.0,0.0,0.0
995466816,795647,0,1.001953125,-0.041015625,0.009765625,-0.03125,0.0,0.0,0.0
995468066,795648,0,1.0078125,-0.037109375,0.01953125,-0.017578125,0.0,0.0,0.0
995469316,795649,0,1.00390625,-0.0390625,0.013671875,-0.025390625,0.0,0.0,0.0
995470567,795650,0,1.005859375,-0.037109375,0.01171875,-0.025390625,0.0,0.0,0.0
995471817,795651,0,1.001953125,-0.041015625,0.009765625,-0.03125,0.0,0.0,0.0
995473069,795652,0,0.998046875,-0.0390625,0.013671875,-0.025390625,0.0,0.0,0.0
995474319,795653,0,1.005859375,-0.0390625,0.01171875,-0.02734375,0.0,0.0,0.0
995475570,795654,0,1.005859375,-0.041015625,0.005859375,-0.03515625,0.0,0.0,0.0
995476822,795655,0,1.0,-0.044921875,0.015625,-0.029296875,0.0,0.0,0.0
995478072,795656,0,1.001953125,-0.0546875,0.0078125,-0.046875,0.0,0.0,0.0
995479322,795657,0,0.99609375,-0.044921875,0.017578125,-0.02734375,0.0,0.0,0.0
995480572,795658,0,1.001953125,-0.048828125,0.005859375,-0.04296875,0.0,0.0,0.0
995481823,795659,0,1.0078125,-0.04296875,0.0078125,-0.03515625,0.0,0.0,0.0
995483075,795660,0,1.0,-0.048828125,0.015625,-0.033203125,0.0,0.0,0.0
995484326,795661,0,0.990234375,-0.05078125,0.015625,-0.03515625,0.0,0.0,0.0
995485576,795662,0,1.001953125,-0.046875,0.013671875,-0.033203125,0.0,0.0,0.0
995486827,795663,0,0.998046875,-0.05078125,0.005859375,-0.044921875,0.0,0.0,0.0
995488077,795664,0,1.001953125,-0.044921875,0.005859375,-0.0390625,0.0,0.0,0.0
995489327,795665,0,1.001953125,-0.05078125,0.001953125,-0.048828125,0.0,0.0,0.0
995490578,795666,0,1.001953125,-0.048828125,0.001953125,-0.046875,0.0,0.0,0.0
995491829,795667,0,0.98828125,-0.05078125,0.009765625,-0.041015625,0.0,0.0,0.0
995493080,795668,0,0.99609375,-0.052734375,0.00390625,-0.048828125,0.0,0.0,0.0
995494332,795669,0,0.994140625,-0.05859375,0.00390625,-0.0546875,0.0,0.0,0.0
995495582,795670,0,0.986328125,-0.064453125,0.001953125,-0.0625,0.0,0.0,0.0
995496834,795671,0,0.99609375,-0.0703125,-0.00390625,-0.07421875,0.0,0.0,0.0
995498085,795672,0,0.998046875,-0.06640625,0.0,-0.06640625,0.0,0.0,0.0
995499335,795673,0,0.99609375,-0.0546875,0.0,-0.0546875,0.0,0.0,0.0
995500586,795674,0,1.001953125,-0.05859375,0.01171875,-0.046875,0.0,0.0,0.0
995501838,795675,0,0.998046875,-0.05859375,0.00390625,-0.0546875,0.0,0.0,0.0
995503088,795676,0,1.001953125,-0.052734375,0.00390625,-0.048828125,0.0,0.0,0.0
995504338,795677,0,0.994140625,-0.056640625,0.009765625,-0.046875,0.0,0.0,0.0
995505589,795678,0,0.99609375,-0.0703125,0.0,-0.0703125,0.0,0.0,0.0
995506839,795679,0,0.990234375,-0.076171875,0.001953125,-0.07421875,0.0,0.0,0.0
995508091,795680,0,0.998046875,-0.091796875,-0.0078125,-0.099609375,0.0,0.0,0.0
995509341,795681,0,1.0,-0.08203125,-0.00390625,-0.0859375,0.0,0.0,0.0
995510592,795682,0,1.00390625,-0.09375,-0.015625,-0.109375,0.0,0.0,0.0
995511844,795683,0,1.005859375,-0.099609375,-0.0078125,-0.107421875,0.0,0.0,0.0
995513094,795684,0,0.998046875,-0.107421875,-0.017578125,-0.125,0.0,0.0,0.0
995514344,795685,0,1.001953125,-0.1171875,-0.00390625,-0.12109375,0.0,0.0,0.0
995515595,795686,0,1.0078125,-0.140625,-0.009765625,-0.150390625,0.0,0.0,0.0
995516846,795687,0,1.00390625,-0.123046875,0.017578125,-0.10546875,0.0,0.0,0.0
995518096,795688,0,1.060546875,-0.251953125,-0.037109375,-0.2890625,0.0,0.0,0.0
995519346,795689,0,1.044921875,-0.314453125,-0.04296875,-0.357421875,0.0,0.0,0.0
995520597,795690,0,0.994140625,-0.33984375,-0.1015625,-0.44140625,0.0,0.0,0.0
995521847,795691,0,0.982421875,-0.361328125,-0.0859375,-0.447265625,0.0,0.0,0.0
995523097,795692,0,0.99609375,-0.3671875,-0.099609375,-0.466796875,0.0,0.0,0.0
995524349,795693,0,0.984375,-0.421875,-0.109375,-0.53125,0.0,0.0,0.0
995525599,795694,0,0.921875,-0.783203125,-0.18359375,-0.966796875,0.0,0.0,0.0
995526850,795695,0,0.88671875,-2.984375,-1.0703125,-4.0546875,0.0,0.0,0.0
995528101,795696,0,1.111328125,-2.322265625,-0.65625,-2.978515625,0.0,0.0,0.0
995529351,795697,0,0.685546875,-1.65625,-0.79296875,-2.44921875,0.0,0.0,0.0
995530602,795698,0,1.10546875,-1.400390625,-0.3984375,-1.798828125,0.0,0.0,0.0
995531853,795699,0,1.0546875,-0.8125,-0.541015625,-1.353515625,0.0,0.0,0.0
995533103,795700,0,0.978515625,-0.60546875,-0.26953125,-0.875,0.0,0.0,0.0
995534355,795701,0,1.001953125,-0.255859375,-0.296875,-0.552734375,0.0,0.0,0.0
995535606,795702,0,1.01171875,-0.126953125,-0.037109375,-0.1640625,0.0,0.0,0.0
995536856,795703,0,1.00390625,0.53515625,-0.046875,0.48828125,0.0,0.0,0.0
995538108,795704,0,0.9609375,0.521484375,0.044921875,0.56640625,0.0,0.0,0.0
995539359,795705,0,1.111328125,0.576171875,-0.03125,0.544921875,0.0,0.0,0.0
995540610,795706,0,1.041015625,0.400390625,0.099609375,0.5,0.0,0.0,0.0
995541860,795707,0,0.904296875,-0.2421875,-0.154296875,-0.396484375,0.0,0.0,0.0
995543110,795708,0,0.982421875,-1.7421875,-0.5546875,-2.296875,0.0,0.0,0.0
995544362,795709,0,1.005859375,-2.802734375,-1.39453125,-4.197265625,0.0,0.0,0.0
995545614,795710,0,0.755859375,-3.955078125,-0.494140625,-4.44921875,0.0,0.0,0.0
995546865,795711,0,0.783203125,-3.291015625,-2.79296875,-6.083984375,0.0,0.0,0.0
995548115,795712,0,1.22265625,-1.623046875,-0.830078125,-2.453125,0.0,0.0,0.0
995549366,795713,0,0.826171875,0.060546875,-1.099609375,-1.0390625,0.0,0.0,0.0
995550616,795714,0,1.125,1.275390625,-0.138671875,1.13671875,0.0,0.0,0.0
995551867,795715,0,1.107421875,2.548828125,0.01171875,2.560546875,0.0,0.0,0.0
995553118,795716,0,1.3359375,3.3671875,0.634765625,4.001953125,0.0,0.0,0.0
995554368,795717,0,0.91015625,3.998046875,1.033203125,5.03125,0.0,0.0,0.0
995555619,795718,0,1.046875,3.998046875,1.240234375,5.23828125,0.0,0.0,0.0
995556871,795719,0,1.341796875,3.998046875,1.4296875,5.427734375,0.0,0.0,0.0
995558121,795720,0,1.140625,3.998046875,1.482421875,5.48046875,0.0,0.0,0.0
995559371,795721,0,1.029296875,3.93359375,1.322265625,5.255859375,0.0,0.0,0.0
995560623,795722,0,1.205078125,3.3125,1.140625,4.453125,0.0,0.0,0.0
995561873,795723,0,1.111328125,2.529296875,0.875,3.404296875,0.0,0.0,0.0
995563124,795724,0,0.95703125,1.669921875,0.517578125,2.1875,0.0,0.0,0.0
995564376,795725,0,1.0546875,0.740234375,0.19921875,0.939453125,0.0,0.0,0.0
995565626,795726,0,0.98828125,-0.15625,-0.099609375,-0.255859375,0.0,0.0,0.0
995566877,795727,0,0.9765625,-0.953125,-0.400390625,-1.353515625,0.0,0.0,0.0
995568127,795728,0,1.03125,-1.63671875,-0.5625,-2.19921875,0.0,0.0,0.0
995569377,795729,0,0.927734375,-2.1328125,-0.708984375,-2.841796875,0.0,0.0,0.0
995570629,795730,0,0.90625,-2.4375,-0.81640625,-3.25390625,0.0,0.0,0.0
995571879,795731,0,0.93359375,-2.5625,-0.80078125,-3.36328125,0.0,0.0,0.0
995573130,795732,0,0.87109375,-2.4609375,-0.78515625,-3.24609375,0.0,0.0,0.0
995574381,795733,0,0.91015625,-2.208984375,-0.748046875,-2.95703125,0.0,0.0,0.0
995575631,795734,0,0.96875,-1.796875,-0.609375,-2.40625,0.0,0.0,0.0
995576883,795735,0,0.947265625,-1.296875,-0.490234375,-1.787109375,0.0,0.0,0.0
995578134,795736,0,0.998046875,-0.74609375,-0.322265625,-1.068359375,0.0,0.0,0.0
995579384,795737,0,1.01171875,-0.185546875,-0.134765625,-0.3203125,0.0,0.0,0.0
995580635,795738,0,0.994140625,0.32421875,0.05078125,0.375,0.0,0.0,0.0
995581887,795739,0,1.0234375,0.80078125,0.203125,1.00390625,0.0,0.0,0.0
995583137,795740,0,1.0546875,1.16015625,0.3515625,1.51171875,0.0,0.0,0.0
995584388,795741,0,1.037109375,1.41015625,0.455078125,1.865234375,0.0,0.0,0.0
995585639,795742,0,1.095703125,1.541015625,0.505859375,2.046875,0.0,0.0,0.0
995586889,795743,0,1.09765625,1.552734375,0.53125,2.083984375,0.0,0.0,0.0
995588140,795744,0,1.046875,1.439453125,0.4453125,1.884765625,0.0,0.0,0.0
995589392,795745,0,1.046875,1.24609375,0.376953125,1.623046875,0.0,0.0,0.0
995590642,795746,0,1.03125,0.65234375,0.2421875,0.89453125,0.0,0.0,0.0
995591894,795747,0,1.01953125,0.30078125,0.119140625,0.419921875,0.0,0.0,0.0
995593145,795748,0,1.00390625,-0.03515625,0.03125,-0.00390625,0.0,0.0,0.0
995594396,795749,0,1.041015625,-0.349609375,-0.08984375,-0.439453125,0.0,0.0,0.0
995595647,795750,0,1.009765625,-0.58984375,-0.181640625,-0.771484375,0.0,0.0,0.0
995596899,795751,0,0.962890625,-0.8203125,-0.23046875,-1.05078125,0.0,0.0,0.0
995598150,795752,0,0.9453125,-0.951171875,-0.287109375,-1.23828125,0.0,0.0,0.0
995599400,795753,0,0.98046875,-0.990234375,-0.287109375,-1.27734375,0.0,0.0,0.0
995600652,795754,0,0.962890625,-0.96484375,-0.287109375,-1.251953125,0.0,0.0,0.0
995601902,795755,0,0.970703125,-0.865234375,-0.267578125,-1.1328125,0.0,0.0,0.0
995603152,795756,0,1.001953125,-0.7109375,-0.23046875,-0.94140625,0.0,0.0,0.0
995604402,795757,0,0.99609375,-0.513671875,-0.158203125,-0.671875,0.0,0.0,0.0
995605653,795758,0,0.978515625,-0.306640625,-0.103515625,-0.41015625,0.0,0.0,0.0
995606904,795759,0,0.990234375,-0.083984375,-0.01953125,-0.103515625,0.0,0.0,0.0
995608154,795760,0,0.994140625,0.125,0.044921875,0.169921875,0.0,0.0,0.0
995609406,795761,0,1.005859375,0.298828125,0.111328125,0.41015625,0.0,0.0,0.0
995610657,795762,0,1.033203125,0.451171875,0.166015625,0.6171875,0.0,0.0,0.0
995611907,795763,0,1.0390625,0.544921875,0.201171875,0.74609375,0.0,0.0,0.0
995613158,795764,0,1.0390625,0.603515625,0.212890625,0.81640625,0.0,0.0,0.0
995614408,795765,0,1.033203125,0.591796875,0.22265625,0.814453125,0.0,0.0,0.0
995615659,795766,0,1.009765625,0.552734375,0.2109375,0.763671875,0.0,0.0,0.0
995616910,795767,0,1.005859375,0.46484375,0.18359375,0.6484375,0.0,0.0,0.0
995618160,795768,0,1.00390625,0.34375,0.1484375,0.4921875,0.0,0.0,0.0
995619410,795769,0,1.015625,0.208984375,0.1015625,0.310546875,0.0,0.0,0.0
995620662,795770,0,1.015625,0.0703125,0.0546875,0.125,0.0,0.0,0.0
995621912,795771,0,1.0078125,-0.060546875,0.009765625,-0.05078125,0.0,0.0,0.0
995623163,795772,0,1.001953125,-0.177734375,-0.037109375,-0.21484375,0.0,0.0,0.0
995624413,795773,0,0.9921875,-0.275390625,-0.072265625,-0.34765625,0.0,0.0,0.0
995625664,795774,0,0.984375,-0.349609375,-0.095703125,-0.4453125,0.0,0.0,0.0
995626915,795775,0,0.978515625,-0.39453125,-0.103515625,-0.498046875,0.0,0.0,0.0
995628167,795776,0,0.994140625,-0.404296875,-0.1171875,-0.521484375,0.0,0.0,0.0
995629417,795777,0,0.998046875,-0.38671875,-0.1171875,-0.50390625,0.0,0.0,0.0
995630668,795778,0,0.99609375,-0.33984375,-0.099609375,-0.439453125,0.0,0.0,0.0
995631920,795779,0,1.001953125,-0.271484375,-0.078125,-0.349609375,0.0,0.0,0.0
995633171,795780,0,0.994140625,-0.185546875,-0.056640625,-0.2421875,0.0,0.0,0.0
995634422,795781,0,0.994140625,-0.109375,-0.0234375,-0.1328125,0.0,0.0,0.0
995635674,795782,0,0.998046875,-0.025390625,0.009765625,-0.015625,0.0,0.0,0.0
995636924,795783,0,1.00390625,0.05859375,0.03125,0.08984375,0.0,0.0,0.0
995638175,795784,0,1.021484375,0.12109375,0.05078125,0.171875,0.0,0.0,0.0
995639426,795785,0,1.01953125,0.17578125,0.083984375,0.259765625,0.0,0.0,0.0
995640677,795786,0,1.025390625,0.203125,0.0859375,0.2890625,0.0,0.0,0.0
995641928,795787,0,1.005859375,0.220703125,0.087890625,0.30859375,0.0,0.0,0.0
995643179,795788,0,1.001953125,0.17578125,0.078125,0.25390625,0.0,0.0,0.0
995644431,795789,0,1.001953125,0.1328125,0.0703125,0.203125,0.0,0.0,0.0
995645681,795790,0,1.01171875,0.08203125,0.0546875,0.13671875,0.0,0.0,0.0
995646932,795791,0,1.015625,0.03125,0.02734375,0.05859375,0.0,0.0,0.0
995648182,795792,0,1.009765625,-0.02734375,0.009765625,-0.017578125,0.0,0.0,0.0
995649432,795793,0,1.0,-0.07421875,-0.013671875,-0.087890625,0.0,0.0,0.0
995650684,795794,0,0.99609375,-0.119140625,-0.017578125,-0.13671875,0.0,0.0,0.0
995651934,795795,0,0.994140625,-0.150390625,-0.033203125,-0.18359375,0.0,0.0,0.0
995653185,795796,0,0.99609375,-0.171875,-0.037109375,-0.208984375,0.0,0.0,0.0
995654436,795797,0,0.99609375,-0.1796875,-0.044921875,-0.224609375,0.0,0.0,0.0
995655687,795798,0,1.001953125,-0.177734375,-0.044921875,-0.22265625,0.0,0.0,0.0
995656937,795799,0,0.998046875,-0.16796875,-0.0390625,-0.20703125,0.0,0.0,0.0
995658187,795800,0,0.998046875,-0.14453125,-0.033203125,-0.177734375,0.0,0.0,0.0
995659439,795801,0,1.0,-0.11328125,-0.02734375,-0.140625,0.0,0.0,0.0
995660690,795802,0,0.99609375,-0.078125,-0.00390625,-0.08203125,0.0,0.0,0.0
995661940,795803,0,1.001953125,-0.0390625,0.0078125,-0.03125,0.0,0.0,0.0
995663192,795804,0,1.009765625,-0.00390625,0.021484375,0.017578125,0.0,0.0,0.0
995664443,795805,0,1.017578125,0.017578125,0.025390625,0.04296875,0.0,0.0,0.0
995665694,795806,0,1.001953125,0.04296875,0.03125,0.07421875,0.0,0.0,0.0
995666944,795807,0,1.01171875,0.0625,0.041015625,0.103515625,0.0,0.0,0.0
995668194,795808,0,1.009765625,0.076171875,0.048828125,0.125,0.0,0.0,0.0
995669445,795809,0,1.00390625,0.078125,0.046875,0.125,0.0,0.0,0.0
995670697,795810,0,1.0078125,0.064453125,0.046875,0.111328125,0.0,0.0,0.0
995671947,795811,0,1.00390625,0.052734375,0.041015625,0.09375,0.0,0.0,0.0
995673199,795812,0,1.0078125,0.033203125,0.021484375,0.0546875,0.0,0.0,0.0
995674449,795813,0,1.009765625,0.0078125,0.0234375,0.03125,0.0,0.0,0.0
995675701,795814,0,1.0078125,-0.013671875,0.01953125,0.005859375,0.0,0.0,0.0
995676951,795815,0,1.0,-0.033203125,0.01171875,-0.021484375,0.0,0.0,0.0
995678202,795816,0,1.001953125,-0.056640625,0.001953125,-0.0546875,0.0,0.0,0.0
995679454,795817,0,1.0,-0.07421875,0.001953125,-0.072265625,0.0,0.0,0.0
995680704,795818,0,1.0,-0.08203125,-0.005859375,-0.087890625,0.0,0.0,0.0
995681955,795819,0,1.00390625,-0.08984375,-0.0078125,-0.09765625,0.0,0.0,0.0
995683206,795820,0,1.0,-0.087890625,-0.01171875,-0.099609375,0.0,0.0,0.0
995684457,795821,0,1.005859375,-0.08203125,-0.005859375,-0.087890625,0.0,0.0,0.0
995685708,795822,0,0.99609375,-0.078125,0.0,-0.078125,0.0,0.0,0.0
995686959,795823,0,1.005859375,-0.068359375,0.0,-0.068359375,0.0,0.0,0.0
995688211,795824,0,0.99609375,-0.046875,0.001953125,-0.044921875,0.0,0.0,0.0
995689463,795825,0,1.005859375,-0.03515625,0.005859375,-0.029296875,0.0,0.0,0.0
995690713,795826,0,1.017578125,-0.021484375,0.01171875,-0.009765625,0.0,0.0,0.0
995691965,795827,0,1.0078125,-0.005859375,0.017578125,0.01171875,0.0,0.0,0.0
995693215,795828,0,1.00390625,0.0,0.03125,0.03125,0.0,0.0,0.0
995694466,795829,0,1.00390625,0.0,0.029296875,0.029296875,0.0,0.0,0.0
995695716,795830,0,1.001953125,0.0078125,0.033203125,0.041015625,0.0,0.0,0.0
995696966,795831,0,1.0,0.001953125,0.01953125,0.021484375,0.0,0.0,0.0
995698216,795832,0,1.00390625,-0.001953125,0.0234375,0.021484375,0.0,0.0,0.0
995699468,795833,0,1.005859375,-0.0078125,0.0234375,0.015625,0.0,0.0,0.0
995700719,795834,0,1.0078125,-0.015625,0.01953125,0.00390625,0.0,0.0,0.0
995701969,795835,0,1.0078125,-0.029296875,0.01171875,-0.017578125,0.0,0.0,0.0
995703221,795836,0,1.00390625,-0.037109375,0.0078125,-0.029296875,0.0,0.0,0.0
995704471,795837,0,0.998046875,-0.046875,0.001953125,-0.044921875,0.0,0.0,0.0
995705723,795838,0,0.998046875,-0.05078125,-0.001953125,-0.052734375,0.0,0.0,0.0
995706973,795839,0,1.0078125,-0.05859375,0.00390625,-0.0546875,0.0,0.0,0.0
995708225,795840,0,1.001953125,-0.060546875,0.001953125,-0.05859375,0.0,0.0,0.0
995709476,795841,0,0.998046875,-0.060546875,0.0,-0.060546875,0.0,0.0,0.0
995710727,795842,0,1.0,-0.0625,-0.001953125,-0.064453125,0.0,0.0,0.0
995711977,795843,0,1.0,-0.056640625,-0.00390625,-0.060546875,0.0,0.0,0.0
995713228,795844,0,1.00390625,-0.056640625,0.00390625,-0.052734375,0.0,0.0,0.0
995714479,795845,0,0.998046875,-0.048828125,0.005859375,-0.04296875,0.0,0.0,0.0
995715730,795846,0,1.001953125,-0.037109375,0.01171875,-0.025390625,0.0,0.0,0.0
995716981,795847,0,1.01171875,-0.03515625,0.005859375,-0.029296875,0.0,0.0,0.0
995718233,795848,0,1.017578125,-0.025390625,0.005859375,-0.01953125,0.0,0.0,0.0
995719484,795849,0,1.01171875,-0.025390625,0.009765625,-0.015625,0.0,0.0,0.0
995720734,795850,0,1.005859375,-0.017578125,0.01171875,-0.005859375,0.0,0.0,0.0
995721984,795851,0,0.994140625,-0.01953125,0.005859375,-0.013671875,0.0,0.0,0.0
995723235,795852,0,1.01171875,-0.021484375,0.015625,-0.005859375,0.0,0.0,0.0
995724486,795853,0,1.017578125,-0.01171875,0.013671875,0.001953125,0.0,0.0,0.0
995725737,795854,0,1.0,-0.021484375,0.01171875,-0.009765625,0.0,0.0,0.0
995726987,795855,0,1.005859375,-0.021484375,0.017578125,-0.00390625,0.0,0.0,0.0
995728238,795856,0,1.009765625,-0.0234375,0.009765625,-0.013671875,0.0,0.0,0.0
995729489,795857,0,1.005859375,-0.025390625,0.015625,-0.009765625,0.0,0.0,0.0
995730740,795858,0,1.0,-0.02734375,0.013671875,-0.013671875,0.0,0.0,0.0
995731992,795859,0,1.001953125,-0.033203125,0.01171875,-0.021484375,0.0,0.0,0.0
995733242,795860,0,0.998046875,-0.037109375,0.009765625,-0.02734375,0.0,0.0,0.0
995734493,795861,0,1.001953125,-0.037109375,0.0078125,-0.029296875,0.0,0.0,0.0
995735744,795862,0,1.001953125,-0.037109375,0.0078125,-0.029296875,0.0,0.0,0.0
995736994,795863,0,1.00390625,-0.041015625,0.005859375,-0.03515625,0.0,0.0,0.0
995738245,795864,0,1.00390625,-0.0390625,0.00390625,-0.03515625,0.0,0.0,0.0
995739497,795865,0,1.017578125,-0.0390625,0.005859375,-0.033203125,0.0,0.0,0.0
995740749,795866,0,1.005859375,-0.03515625,0.015625,-0.01953125,0.0,0.0,0.0
995741999,795867,0,1.001953125,-0.03125,0.009765625,-0.021484375,0.0,0.0,0.0
995743250,795868,0,0.99609375,-0.03125,0.009765625,-0.021484375,0.0,0.0,0.0
995744500,795869,0,0.9921875,-0.03125,0.013671875,-0.017578125,0.0,0.0,0.0
995745752,795870,0,1.0078125,-0.021484375,0.0078125,-0.013671875,0.0,0.0,0.0
995747003,795871,0,1.00390625,-0.021484375,0.025390625,0.00390625,0.0,0.0,0.0
995748254,795872,0,1.009765625,-0.01953125,0.015625,-0.00390625,0.0,0.0,0.0
995749504,795873,0,0.99609375,-0.025390625,0.017578125,-0.0078125,0.0,0.0,0.0
995750756,795874,0,1.0,-0.01953125,0.017578125,-0.001953125,0.0,0.0,0.0
995752006,795875,0,1.005859375,-0.021484375,0.015625,-0.005859375,0.0,0.0,0.0
995753257,795876,0,1.005859375,-0.0234375,0.01171875,-0.01171875,0.0,0.0,0.0
995754508,795877,0,1.005859375,-0.02734375,0.01171875,-0.015625,0.0,0.0,0.0
995755759,795878,0,1.009765625,-0.0234375,0.0078125,-0.015625,0.0,0.0,0.0
995757009,795879,0,1.00390625,-0.029296875,0.013671875,-0.015625,0.0,0.0,0.0
995758259,795880,0,1.001953125,-0.033203125,0.01171875,-0.021484375,0.0,0.0,0.0
995759510,795881,0,1.00390625,-0.03515625,0.017578125,-0.017578125,0.0,0.0,0.0
995760762,795882,0,0.998046875,-0.037109375,0.017578125,-0.01953125,0.0,0.0,0.0
995762013,795883,0,0.99609375,-0.03515625,0.0078125,-0.02734375,0.0,0.0,0.0
995763271,795884,0,1.00390625,-0.04296875,0.01171875,-0.03125,0.0,0.0,0.0
995764522,795885,0,1.005859375,-0.037109375,0.01171875,-0.025390625,0.0,0.0,0.0
995765773,795886,0,1.005859375,-0.037109375,0.0078125,-0.029296875,0.0,0.0,0.0
995767025,795887,0,1.0,-0.041015625,0.015625,-0.025390625,0.0,0.0,0.0
995768277,795888,0,1.0078125,-0.03515625,0.009765625,-0.025390625,0.0,0.0,0.0
995769528,795889,0,1.0078125,-0.037109375,0.001953125,-0.03515625,0.0,0.0,0.0
995770779,795890,0,0.998046875,-0.03515625,0.01953125,-0.015625,0.0,0.0,0.0
995772031,795891,0,1.0078125,-0.029296875,0.01171875,-0.017578125,0.0,0.0,0.0
995773283,795892,0,1.0078125,-0.033203125,0.017578125,-0.015625,0.0,0.0,0.0
995774535,795893,0,1.01171875,-0.033203125,0.0078125,-0.025390625,0.0,0.0,0.0
995775786,795894,0,1.0,-0.03125,0.01171875,-0.01953125,0.0,0.0,0.0
995777036,795895,0,1.001953125,-0.033203125,0.009765625,-0.0234375,0.0,0.0,0.0
995778287,795896,0,1.001953125,-0.029296875,0.009765625,-0.01953125,0.0,0.0,0.0
995779537,795897,0,1.001953125,-0.033203125,0.0078125,-0.025390625,0.0,0.0,0.0
995780787,795898,0,1.0,-0.03515625,0.01171875,-0.0234375,0.0,0.0,0.0
995782038,795899,0,1.005859375,-0.03515625,0.01953125,-0.015625,0.0,0.0,0.0
995783289,795900,0,1.00390625,-0.03515625,0.0078125,-0.02734375,0.0,0.0,0.0
995784539,795901,0,1.00390625,-0.041015625,0.0078125,-0.033203125,0.0,0.0,0.0
995785790,795902,0,1.0,-0.037109375,0.009765625,-0.02734375,0.0,0.0,0.0
995787042,795903,0,1.0078125,-0.0390625,0.009765625,-0.029296875,0.0,0.0,0.0
995788292,795904,0,1.001953125,-0.037109375,0.013671875,-0.0234375,0.0,0.0,0.0
995789543,795905,0,1.0,-0.03515625,0.00390625,-0.03125,0.0,0.0,0.0
995790794,795906,0,1.00390625,-0.033203125,0.013671875,-0.01953125,0.0,0.0,0.0
995792044,795907,0,1.001953125,-0.03515625,0.0078125,-0.02734375,0.0,0.0,0.0
995793294,795908,0,1.005859375,-0.0390625,0.009765625,-0.029296875,0.0,0.0,0.0
995794544,795909,0,1.0,-0.0390625,0.009765625,-0.029296875,0.0,0.0,0.0
995795796,795910,0,1.00390625,-0.037109375,0.013671875,-0.0234375,0.0,0.0,0.0
995797047,795911,0,1.009765625,-0.0390625,0.0,-0.0390625,0.0,0.0,0.0
995798297,795912,0,1.0,-0.029296875,0.009765625,-0.01953125,0.0,0.0,0.0
995799548,795913,0,1.015625,-0.033203125,0.005859375,-0.02734375,0.0,0.0,0.0
995800800,795914,0,1.00390625,-0.029296875,0.01171875,-0.017578125,0.0,0.0,0.0
995802050,795915,0,1.005859375,-0.02734375,0.0078125,-0.01953125,0.0,0.0,0.0
995803300,795916,0,1.00390625,-0.029296875,0.0078125,-0.021484375,0.0,0.0,0.0
995804550,795917,0,1.00390625,-0.029296875,0.01171875,-0.017578125,0.0,0.0,0.0
995805801,795918,0,1.00390625,-0.03125,0.01171875,-0.01953125,0.0,0.0,0.0
995807052,795919,0,1.001953125,-0.02734375,0.0078125,-0.01953125,0.0,0.0,0.0
995808302,795920,0,1.005859375,-0.02734375,0.01171875,-0.015625,0.0,0.0,0.0
995809553,795921,0,0.998046875,-0.025390625,0.01171875,-0.013671875,0.0,0.0,0.0
995810804,795922,0,0.998046875,-0.02734375,0.0078125,-0.01953125,0.0,0.0,0.0
995812054,795923,0,1.005859375,-0.029296875,0.01171875,-0.017578125,0.0,0.0,0.0
995813305,795924,0,1.005859375,-0.03125,0.009765625,-0.021484375,0.0,0.0,0.0
995814556,795925,0,1.001953125,-0.029296875,0.0078125,-0.021484375,0.0,0.0,0.0
995815807,795926,0,1.00390625,-0.025390625,0.01171875,-0.013671875,0.0,0.0,0.0
995817058,795927,0,1.001953125,-0.029296875,0.013671875,-0.015625,0.0,0.0,0.0
995818310,795928,0,1.00390625,-0.03125,0.0078125,-0.0234375,0.0,0.0,0.0
995819560,795929,0,1.00390625,-0.03125,0.01171875,-0.01953125,0.0,0.0,0.0
995820810,795930,0,1.009765625,-0.029296875,0.009765625,-0.01953125,0.0,0.0,0.0
995822060,795931,0,0.998046875,-0.03125,0.013671875,-0.017578125,0.0,0.0,0.0
995823311,795932,0,0.998046875,-0.03515625,0.01171875,-0.0234375,0.0,0.0,0.0
995824561,795933,0,1.01171875,-0.02734375,0.01953125,-0.0078125,0.0,0.0,0.0
995825813,795934,0,1.00390625,-0.029296875,0.01171875,-0.017578125,0.0,0.0,0.0
995827063,795935,0,0.998046875,-0.029296875,0.013671875,-0.015625,0.0,0.0,0.0
995828313,795936,0,1.005859375,-0.029296875,0.01171875,-0.017578125,0.0,0.0,0.0
995829565,795937,0,1.0078125,-0.02734375,0.009765625,-0.017578125,0.0,0.0,0.0
995830816,795938,0,1.00390625,-0.02734375,0.025390625,-0.001953125,0.0,0.0,0.0
995832066,795939,0,1.0078125,-0.03515625,0.0078125,-0.02734375,0.0,0.0,0.0
995833316,795940,0,1.00390625,-0.03125,0.01171875,-0.01953125,0.0,0.0,0.0
995834567,795941,0,1.005859375,-0.029296875,0.01171875,-0.017578125,0.0,0.0,0.0
995835817,795942,0,1.001953125,-0.029296875,0.009765625,-0.01953125,0.0,0.0,0.0
995837069,795943,0,1.00390625,-0.033203125,0.01171875,-0.021484375,0.0,0.0,0.0
995838319,795944,0,1.0078125,-0.029296875,0.0078125,-0.021484375,0.0,0.0,0.0
995839570,795945,0,0.998046875,-0.029296875,0.01171875,-0.017578125,0.0,0.0,0.0
995840822,795946,0,1.0,-0.03515625,0.0078125,-0.02734375,0.0,0.0,0.0
995842072,795947,0,1.00390625,-0.029296875,0.015625,-0.013671875,0.0,0.0,0.0
995843322,795948,0,1.00390625,-0.037109375,0.005859375,-0.03125,0.0,0.0,0.0
995844572,795949,0,0.998046875,-0.037109375,0.013671875,-0.0234375,0.0,0.0,0.0
995845823,795950,0,1.001953125,-0.037109375,0.013671875,-0.0234375,0.0,0.0,0.0
995847075,795951,0,1.00390625,-0.029296875,0.01171875,-0.017578125,0.0,0.0,0.0
995848326,795952,0,1.009765625,-0.033203125,0.009765625,-0.0234375,0.0,0.0,0.0
995849576,795953,0,1.00390625,-0.03515625,0.0078125,-0.02734375,0.0,0.0,0.0
995850827,795954,0,1.01953125,-0.03515625,0.001953125,-0.033203125,0.0,0.0,0.0
995852077,795955,0,1.00390625,-0.03125,0.009765625,-0.021484375,0.0,0.0,0.0
995853327,795956,0,1.009765625,-0.03515625,0.0078125,-0.02734375,0.0,0.0,0.0
995854578,795957,0,1.01171875,-0.03515625,0.01171875,-0.0234375,0.0,0.0,0.0
995855829,795958,0,1.00390625,-0.037109375,0.0078125,-0.029296875,0.0,0.0,0.0
995857080,795959,0,1.00390625,-0.033203125,0.009765625,-0.0234375,0.0,0.0,0.0
995858332,795960,0,1.0078125,-0.033203125,0.005859375,-0.02734375,0.0,0.0,0.0
995859582,795961,0,1.001953125,-0.03125,0.01171875,-0.01953125,0.0,0.0,0.0
995860834,795962,0,1.0,-0.03125,0.01171875,-0.01953125,0.0,0.0,0.0
995862085,795963,0,0.998046875,-0.033203125,0.009765625,-0.0234375,0.0,0.0,0.0
995863335,795964,0,1.005859375,-0.037109375,0.01171875,-0.025390625,0.0,0.0,0.0
995864586,795965,0,1.005859375,-0.03515625,0.01171875,-0.0234375,0.0,0.0,0.0
995865838,795966,0,0.998046875,-0.03125,0.009765625,-0.021484375,0.0,0.0,0.0
995867088,795967,0,0.998046875,-0.03125,0.0078125,-0.0234375,0.0,0.0,0.0
995868338,795968,0,1.00390625,-0.033203125,0.009765625,-0.0234375,0.0,0.0,0.0
995869589,795969,0,0.998046875,-0.03125,0.01953125,-0.01171875,0.0,0.0,0.0
995870839,795970,0,1.005859375,-0.03515625,0.00390625,-0.03125,0.0,0.0,0.0
995872091,795971,0,1.0078125,-0.03125,0.00390625,-0.02734375,0.0,0.0,0.0
995873341,795972,0,1.00390625,-0.037109375,0.0078125,-0.029296875,0.0,0.0,0.0
995874592,795973,0,1.001953125,-0.02734375,0.013671875,-0.013671875,0.0,0.0,0.0
995875844,795974,0,1.005859375,-0.033203125,0.025390625,-0.0078125,0.0,0.0,0.0
995877094,795975,0,1.0078125,-0.033203125,0.005859375,-0.02734375,0.0,0.0,0.0
995878344,795976,0,1.001953125,-0.03515625,0.0078125,-0.02734375,0.0,0.0,0.0
995879595,795977,0,1.0,-0.02734375,0.013671875,-0.013671875,0.0,0.0,0.0
995880846,795978,0,1.001953125,-0.029296875,0.013671875,-0.015625,0.0,0.0,0.0
995882096,795979,0,1.00390625,-0.029296875,0.01171875,-0.017578125,0.0,0.0,0.0
995883346,795980,0,1.00390625,-0.02734375,0.017578125,-0.009765625,0.0,0.0,0.0
995884597,795981,0,0.99609375,-0.029296875,0.009765625,-0.01953125,0.0,0.0,0.0
995885847,795982,0,1.00390625,-0.03125,0.013671875,-0.017578125,0.0,0.0,0.0
995887097,795983,0,1.001953125,-0.029296875,0.00390625,-0.025390625,0.0,0.0,0.0
995888349,795984,0,1.005859375,-0.0234375,0.009765625,-0.013671875,0.0,0.0,0.0
995889599,795985,0,1.00390625,-0.03125,0.009765625,-0.021484375,0.0,0.0,0.0
995890850,795986,0,1.005859375,-0.03125,0.01171875,-0.01953125,0.0,0.0,0.0
995892101,795987,0,1.00390625,-0.033203125,0.017578125,-0.015625,0.0,0.0,0.0
995893351,795988,0,1.001953125,-0.029296875,0.01171875,-0.017578125,0.0,0.0,0.0
995894602,795989,0,1.001953125,-0.033203125,0.013671875,-0.01953125,0.0,0.0,0.0
995895853,795990,0,1.005859375,-0.033203125,0.017578125,-0.015625,0.0,0.0,0.0
995897103,795991,0,1.00390625,-0.03125,0.015625,-0.015625,0.0,0.0,0.0
995898355,795992,0,1.0078125,-0.029296875,0.01171875,-0.017578125,0.0,0.0,0.0
995899606,795993,0,0.998046875,-0.033203125,0.00390625,-0.029296875,0.0,0.0,0.0
995900856,795994,0,1.001953125,-0.03125,0.01171875,-0.01953125,0.0,0.0,0.0
995902108,795995,0,1.001953125,-0.033203125,0.001953125,-0.03125,0.0,0.0,0.0
995903359,795996,0,1.005859375,-0.033203125,0.017578125,-0.015625,0.0,0.0,0.0
995904610,795997,0,1.005859375,-0.0390625,0.001953125,-0.037109375,0.0,0.0,0.0
995905860,795998,0,0.998046875,-0.033203125,0.01171875,-0.021484375,0.0,0.0,0.0
995907110,795999,0,0.99609375,-0.03515625,0.0078125,-0.02734375,0.0,0.0,0.0
995908362,796000,0,1.0078125,-0.033203125,0.01171875,-0.021484375,0.0,0.0,0.0
995909614,796001,0,1.009765625,-0.03125,0.013671875,-0.017578125,0.0,0.0,0.0
995910865,796002,0,0.994140625,-0.03125,0.005859375,-0.025390625,0.0,0.0,0.0
995912115,796003,0,1.001953125,-0.033203125,0.013671875,-0.01953125,0.0,0.0,0.0
995913366,796004,0,1.0,-0.03515625,0.013671875,-0.021484375,0.0,0.0,0.0
995914616,796005,0,1.0078125,-0.033203125,0.005859375,-0.02734375,0.0,0.0,0.0
995915867,796006,0,1.0,-0.03125,0.01171875,-0.01953125,0.0,0.0,0.0
995917118,796007,0,1.005859375,-0.03125,0.00390625,-0.02734375,0.0,0.0,0.0
995918368,796008,0,1.0078125,-0.03125,0.005859375,-0.025390625,0.0,0.0,0.0
995919619,796009,0,1.005859375,-0.029296875,0.005859375,-0.0234375,0.0,0.0,0.0
995920871,796010,0,1.0078125,-0.037109375,0.0078125,-0.029296875,0.0,0.0,0.0
995922121,796011,0,1.0,-0.033203125,0.013671875,-0.01953125,0.0,0.0,0.0
995923371,796012,0,1.0,-0.033203125,0.015625,-0.017578125,0.0,0.0,0.0
995924623,796013,0,1.0,-0.029296875,0.005859375,-0.0234375,0.0,0.0,0.0
995925873,796014,0,1.00390625,-0.033203125,0.01171875,-0.021484375,0.0,0.0,0.0
995927124,796015,0,1.0,-0.033203125,0.005859375,-0.02734375,0.0,0.0,0.0
995928376,796016,0,1.00390625,-0.03515625,0.005859375,-0.029296875,0.0,0.0,0.0
995929626,796017,0,1.00390625,-0.033203125,0.0078125,-0.025390625,0.0,0.0,0.0
995930877,796018,0,1.0,-0.03515625,0.015625,-0.01953125,0.0,0.0,0.0
995932127,796019,0,1.009765625,-0.03515625,0.015625,-0.01953125,0.0,0.0,0.0
995933377,796020,0,1.0078125,-0.03515625,0.01953125,-0.015625,0.0,0.0,0.0
995934629,796021,0,0.998046875,-0.03125,0.009765625,-0.021484375,0.0,0.0,0.0
995935879,796022,0,1.0078125,-0.02734375,0.009765625,-0.017578125,0.0,0.0,0.0
995937130,796023,0,0.994140625,-0.025390625,0.01171875,-0.013671875,0.0,0.0,0.0
995938381,796024,0,1.01171875,-0.033203125,0.0078125,-0.025390625,0.0,0.0,0.0
995939631,796025,0,1.0078125,-0.033203125,0.009765625,-0.0234375,0.0,0.0,0.0
995940883,796026,0,1.009765625,-0.033203125,0.01171875,-0.021484375,0.0,0.0,0.0
995942134,796027,0,1.0078125,-0.029296875,0.009765625,-0.01953125,0.0,0.0,0.0
995943384,796028,0,1.0,-0.03125,0.00390625,-0.02734375,0.0,0.0,0.0
995944635,796029,0,1.001953125,-0.03125,0.013671875,-0.017578125,0.0,0.0,0.0
995945887,796030,0,1.0078125,-0.02734375,0.009765625,-0.017578125,0.0,0.0,0.0
995947137,796031,0,1.009765625,-0.029296875,0.017578125,-0.01171875,0.0,0.0,0.0
995948388,796032,0,1.0,-0.033203125,0.01171875,-0.021484375,0.0,0.0,0.0
995949639,796033,0,1.0078125,-0.03515625,0.0078125,-0.02734375,0.0,0.0,0.0
995950889,796034,0,1.001953125,-0.03125,0.013671875,-0.017578125,0.0,0.0,0.0
995952140,796035,0,1.0,-0.029296875,0.013671875,-0.015625,0.0,0.0,0.0
995953392,796036,0,1.00390625,-0.029296875,0.0078125,-0.021484375,0.0,0.0,0.0
995954642,796037,0,1.00390625,-0.033203125,0.01171875,-0.021484375,0.0,0.0,0.0
995955894,796038,0,1.0,-0.03125,0.005859375,-0.025390625,0.0,0.0,0.0
995957145,796039,0,1.00390625,-0.033203125,0.00390625,-0.029296875,0.0,0.0,0.0
995958396,796040,0,1.0078125,-0.03125,0.013671875,-0.017578125,0.0,0.0,0.0
995959647,796041,0,1.017578125,-0.03125,0.001953125,-0.029296875,0.0,0.0,0.0
995960899,796042,0,0.998046875,-0.029296875,0.0078125,-0.021484375,0.0,0.0,0.0
995962150,796043,0,1.0,-0.033203125,0.0078125,-0.025390625,0.0,0.0,0.0
995963400,796044,0,1.005859375,-0.03125,0.015625,-0.015625,0.0,0.0,0.0
995964652,796045,0,1.005859375,-0.03515625,0.0078125,-0.02734375,0.0,0.0,0.0
995965902,796046,0,1.0078125,-0.02734375,0.01953125,-0.0078125,0.0,0.0,0.0
995967152,796047,0,1.005859375,-0.033203125,0.00390625,-0.029296875,0.0,0.0,0.0
995968402,796048,0,1.0,-0.02734375,0.0078125,-0.01953125,0.0,0.0,0.0
995969653,796049,0,0.998046875,-0.03125,0.009765625,-0.021484375,0.0,0.0,0.0
995970904,796050,0,1.005859375,-0.033203125,0.005859375,-0.02734375,0.0,0.0,0.0
995972154,796051,0,1.0,-0.02734375,0.013671875,-0.013671875,0.0,0.0,0.0
995973406,796052,0,1.00390625,-0.033203125,0.0078125,-0.025390625,0.0,0.0,0.0
995974657,796053,0,1.0078125,-0.029296875,0.017578125,-0.01171875,0.0,0.0,0.0
995975907,796054,0,1.00390625,-0.03125,0.0078125,-0.0234375,0.0,0.0,0.0
995977158,796055,0,1.0078125,-0.033203125,0.009765625,-0.0234375,0.0,0.0,0.0
995978408,796056,0,1.005859375,-0.03125,0.01171875,-0.01953125,0.0,0.0,0.0
995979659,796057,0,1.00390625,-0.03125,0.009765625,-0.021484375,0.0,0.0,0.0
995980910,796058,0,1.0,-0.03125,0.01171875,-0.01953125,0.0,0.0,0.0
995982160,796059,0,1.005859375,-0.029296875,0.009765625,-0.01953125,0.0,0.0,0.0
995983410,796060,0,1.00390625,-0.03515625,0.017578125,-0.017578125,0.0,0.0,0.0
995984662,796061,0,0.99609375,-0.0390625,0.01171875,-0.02734375,0.0,0.0,0.0
995985912,796062,0,1.0078125,-0.037109375,0.005859375,-0.03125,0.0,0.0,0.0
995987163,796063,0,1.00390625,-0.041015625,0.013671875,-0.02734375,0.0,0.0,0.0
995988413,796064,0,1.0078125,-0.037109375,0.015625,-0.021484375,0.0,0.0,0.0
995989664,796065,0,1.0,-0.037109375,0.009765625,-0.02734375,0.0,0.0,0.0
995990915,796066,0,0.998046875,-0.041015625,0.001953125,-0.0390625,0.0,0.0,0.0
995992167,796067,0,1.009765625,-0.029296875,0.0,-0.029296875,0.0,0.0,0.0
995993417,796068,0,1.005859375,-0.03515625,0.009765625,-0.025390625,0.0,0.0,0.0
995994668,796069,0,1.005859375,-0.03515625,0.0078125,-0.02734375,0.0,0.0,0.0
995995920,796070,0,1.001953125,-0.033203125,0.0078125,-0.025390625,0.0,0.0,0.0
995997171,796071,0,1.0,-0.03125,0.013671875,-0.017578125,0.0,0.0,0.0
995998422,796072,0,1.005859375,-0.03125,0.01171875,-0.01953125,0.0,0.0,0.0
995999674,796073,0,1.005859375,-0.033203125,0.015625,-0.017578125,0.0,0.0,0.0
996000924,796074,0,1.0078125,-0.037109375,0.01171875,-0.025390625,0.0,0.0,0.0
996002175,796075,0,1.0078125,-0.03515625,0.009765625,-0.025390625,0.0,0.0,0.0
996003426,796076,0,1.00390625,-0.03515625,0.013671875,-0.021484375,0.0,0.0,0.0
996004677,796077,0,1.005859375,-0.03515625,0.0078125,-0.02734375,0.0,0.0,0.0
996005928,796078,0,1.0,-0.03515625,0.0078125,-0.02734375,0.0,0.0,0.0
996007179,796079,0,1.0078125,-0.033203125,0.0078125,-0.025390625,0.0,0.0,0.0
996008431,796080,0,1.0078125,-0.02734375,0.009765625,-0.017578125,0.0,0.0,0.0
996009681,796081,0,1.00390625,-0.033203125,0.0078125,-0.025390625,0.0,0.0,0.0
996010932,796082,0,1.005859375,-0.03125,0.013671875,-0.017578125,0.0,0.0,0.0
996012182,796083,0,1.0078125,-0.037109375,0.015625,-0.021484375,0.0,0.0,0.0
996013432,796084,0,1.013671875,-0.03515625,0.009765625,-0.025390625,0.0,0.0,0.0
996014684,796085,0,1.00390625,-0.03125,0.013671875,-0.017578125,0.0,0.0,0.0
996015934,796086,0,1.0078125,-0.033203125,0.005859375,-0.02734375,0.0,0.0,0.0
996017185,796087,0,1.009765625,-0.02734375,0.009765625,-0.017578125,0.0,0.0,0.0
996018436,796088,0,1.009765625,-0.029296875,0.0078125,-0.021484375,0.0,0.0,0.0
996019687,796089,0,1.005859375,-0.029296875,0.015625,-0.013671875,0.0,0.0,0.0
996020937,796090,0,1.005859375,-0.03125,0.01171875,-0.01953125,0.0,0.0,0.0
996022187,796091,0,1.00390625,-0.03125,0.017578125,-0.013671875,0.0,0.0,0.0
996023439,796092,0,1.00390625,-0.02734375,0.013671875,-0.013671875,0.0,0.0,0.0
996024690,796093,0,1.00390625,-0.03125,0.009765625,-0.021484375,0.0,0.0,0.0
996025940,796094,0,0.998046875,-0.03515625,0.0078125,-0.02734375,0.0,0.0,0.0
996027192,796095,0,1.0078125,-0.03125,0.009765625,-0.021484375,0.0,0.0,0.0
996028443,796096,0,1.0078125,-0.029296875,0.01171875,-0.017578125,0.0,0.0,0.0
996029694,796097,0,1.00390625,-0.033203125,0.0078125,-0.025390625,0.0,0.0,0.0
996030944,796098,0,1.0,-0.025390625,0.005859375,-0.01953125,0.0,0.0,0.0
996032194,796099,0,1.001953125,-0.033203125,0.0078125,-0.025390625,0.0,0.0,0.0
996033445,796100,0,1.001953125,-0.029296875,0.015625,-0.013671875,0.0,0.0,0.0
996034697,796101,0,1.001953125,-0.03125,0.009765625,-0.021484375,0.0,0.0,0.0
996035947,796102,0,1.005859375,-0.03125,0.005859375,-0.025390625,0.0,0.0,0.0
996037199,796103,0,1.005859375,-0.02734375,0.01171875,-0.015625,0.0,0.0,0.0
996038449,796104,0,1.0078125,-0.03515625,0.013671875,-0.021484375,0.0,0.0,0.0
996039701,796105,0,1.00390625,-0.03515625,0.017578125,-0.017578125,0.0,0.0,0.0
996040951,796106,0,1.001953125,-0.03515625,0.009765625,-0.025390625,0.0,0.0,0.0
996042202,796107,0,1.001953125,-0.033203125,0.009765625,-0.0234375,0.0,0.0,0.0
996043454,796108,0,1.0078125,-0.03515625,0.00390625,-0.03125,0.0,0.0,0.0
996044704,796109,0,1.015625,-0.03515625,0.00390625,-0.03125,0.0,0.0,0.0
996045955,796110,0,1.0,-0.02734375,0.009765625,-0.017578125,0.0,0.0,0.0
996047206,796111,0,1.001953125,-0.033203125,0.0078125,-0.025390625,0.0,0.0,0.0
996048457,796112,0,1.00390625,-0.029296875,0.009765625,-0.01953125,0.0,0.0,0.0
996049708,796113,0,1.005859375,-0.03515625,0.0078125,-0.02734375,0.0,0.0,0.0
996050959,796114,0,1.005859375,-0.03515625,0.005859375,-0.029296875,0.0,0.0,0.0
996052211,796115,0,1.0078125,-0.033203125,0.009765625,-0.0234375,0.0,0.0,0.0
996053463,796116,0,1.00390625,-0.033203125,0.013671875,-0.01953125,0.0,0.0,0.0
996054713,796117,0,1.0,-0.03125,0.01171875,-0.01953125,0.0,0.0,0.0
996055965,796118,0,1.00390625,-0.03125,0.01171875,-0.01953125,0.0,0.0,0.0
996057215,796119,0,1.005859375,-0.037109375,0.015625,-0.021484375,0.0,0.0,0.0
996058466,796120,0,1.005859375,-0.03515625,0.0078125,-0.02734375,0.0,0.0,0.0
996059716,796121,0,1.001953125,-0.037109375,0.013671875,-0.0234375,0.0,0.0,0.0
996060966,796122,0,1.001953125,-0.03515625,0.009765625,-0.025390625,0.0,0.0,0.0
996062216,796123,0,1.00390625,-0.025390625,0.009765625,-0.015625,0.0,0.0,0.0
996063468,796124,0,1.009765625,-0.037109375,0.00390625,-0.033203125,0.0,0.0,0.0
996064719,796125,0,1.0078125,-0.033203125,0.0,-0.033203125,0.0,0.0,0.0
996065969,796126,0,1.0078125,-0.041015625,0.0,-0.041015625,0.0,0.0,0.0
996067221,796127,0,1.00390625,-0.037109375,0.001953125,-0.03515625,0.0,0.0,0.0
996068471,796128,0,1.015625,-0.029296875,0.0078125,-0.021484375,0.0,0.0,0.0
996069723,796129,0,1.00390625,-0.0234375,0.013671875,-0.009765625,0.0,0.0,0.0
996070973,796130,0,0.98828125,-0.033203125,0.009765625,-0.0234375,0.0,0.0,0.0
996072225,796131,0,1.00390625,-0.033203125,0.00390625,-0.029296875,0.0,0.0,0.0
996073476,796132,0,1.0078125,-0.029296875,0.0078125,-0.021484375,0.0,0.0,0.0
996074727,796133,0,1.0,-0.03515625,0.009765625,-0.025390625,0.0,0.0,0.0
996075977,796134,0,1.001953125,-0.037109375,0.01171875,-0.025390625,0.0,0.0,0.0
996077228,796135,0,1.0078125,-0.03515625,0.0078125,-0.02734375,0.0,0.0,0.0
996078479,796136,0,1.0,-0.03515625,0.01171875,-0.0234375,0.0,0.0,0.0
996079730,796137,0,1.00390625,-0.03125,0.013671875,-0.017578125,0.0,0.0,0.0
996080981,796138,0,1.001953125,-0.029296875,0.0078125,-0.021484375,0.0,0.0,0.0
996082233,796139,0,1.0078125,-0.029296875,0.0078125,-0.021484375,0.0,0.0,0.0
996083484,796140,0,1.00390625,-0.03125,0.015625,-0.015625,0.0,0.0,0.0
996084734,796141,0,1.001953125,-0.03125,0.017578125,-0.013671875,0.0,0.0,0.0
996085984,796142,0,1.0,-0.033203125,0.01171875,-0.021484375,0.0,0.0,0.0
996087235,796143,0,1.009765625,-0.033203125,0.013671875,-0.01953125,0.0,0.0,0.0
996088486,796144,0,1.00390625,-0.03125,0.01953125,-0.01171875,0.0,0.0,0.0
996089737,796145,0,1.009765625,-0.03515625,0.005859375,-0.029296875,0.0,0.0,0.0
996090987,796146,0,1.005859375,-0.025390625,0.015625,-0.009765625,0.0,0.0,0.0
996092238,796147,0,0.998046875,-0.03125,0.005859375,-0.025390625,0.0,0.0,0.0
996093489,796148,0,1.001953125,-0.029296875,0.0078125,-0.021484375,0.0,0.0,0.0
996094740,796149,0,1.005859375,-0.033203125,0.001953125,-0.03125,0.0,0.0,0.0
996095992,796150,0,1.001953125,-0.03515625,0.009765625,-0.025390625,0.0,0.0,0.0
996097242,796151,0,0.994140625,-0.03125,0.00390625,-0.02734375,0.0,0.0,0.0
996098493,796152,0,1.017578125,-0.03515625,0.005859375,-0.029296875,0.0,0.0,0.0
996099744,796153,0,0.994140625,-0.033203125,0.015625,-0.017578125,0.0,0.0,0.0
996100994,796154,0,1.001953125,-0.037109375,0.013671875,-0.0234375,0.0,0.0,0.0
996102245,796155,0,1.005859375,-0.03515625,0.013671875,-0.021484375,0.0,0.0,0.0
996103497,796156,0,1.001953125,-0.037109375,0.005859375,-0.03125,0.0,0.0,0.0
996104749,796157,0,1.00390625,-0.037109375,0.009765625,-0.02734375,0.0,0.0,0.0
996105999,796158,0,1.001953125,-0.0390625,0.01171875,-0.02734375,0.0,0.0,0.0
996107250,796159,0,1.005859375,-0.03515625,0.005859375,-0.029296875,0.0,0.0,0.0
996108500,796160,0,1.001953125,-0.03125,0.005859375,-0.025390625,0.0,0.0,0.0
996109752,796161,0,1.005859375,-0.033203125,0.0078125,-0.025390625,0.0,0.0,0.0
996111003,796162,0,1.001953125,-0.033203125,0.009765625,-0.0234375,0.0,0.0,0.0
996112254,796163,0,1.001953125,-0.03515625,0.01171875,-0.0234375,0.0,0.0,0.0
996113504,796164,0,1.0078125,-0.037109375,0.005859375,-0.03125,0.0,0.0,0.0
996114756,796165,0,1.0,-0.03515625,0.01171875,-0.0234375,0.0,0.0,0.0
996116006,796166,0,1.005859375,-0.03515625,0.005859375,-0.029296875,0.0,0.0,0.0
996117257,796167,0,1.001953125,-0.03515625,0.013671875,-0.021484375,0.0,0.0,0.0
996118508,796168,0,1.0,-0.029296875,0.013671875,-0.015625,0.0,0.0,0.0
996119759,796169,0,1.0078125,-0.037109375,0.00390625,-0.033203125,0.0,0.0,0.0
996121009,796170,0,1.009765625,-0.03515625,0.00390625,-0.03125,0.0,0.0,0.0
996122259,796171,0,1.00390625,-0.0390625,0.005859375,-0.033203125,0.0,0.0,0.0
996123510,796172,0,1.005859375,-0.029296875,0.013671875,-0.015625,0.0,0.0,0.0
996124762,796173,0,1.001953125,-0.03125,0.00390625,-0.02734375,0.0,0.0,0.0
996126013,796174,0,1.0,-0.03515625,0.0078125,-0.02734375,0.0,0.0,0.0
996127271,796175,0,1.0078125,-0.037109375,0.0078125,-0.029296875,0.0,0.0,0.0
996128522,796176,0,1.00390625,-0.03515625,0.01171875,-0.0234375,0.0,0.0,0.0
996129773,796177,0,1.00390625,-0.033203125,0.015625,-0.017578125,0.0,0.0,0.0
996131025,796178,0,1.005859375,-0.037109375,0.013671875,-0.0234375,0.0,0.0,0.0
996132277,796179,0,1.005859375,-0.03515625,0.01171875,-0.0234375,0.0,0.0,0.0
996133528,796180,0,1.005859375,-0.03125,0.013671875,-0.017578125,0.0,0.0,0.0
996134779,796181,0,1.0078125,-0.03515625,0.0078125,-0.02734375,0.0,0.0,0.0
996136031,796182,0,1.005859375,-0.03125,0.005859375,-0.025390625,0.0,0.0,0.0
996137283,796183,0,1.00390625,-0.037109375,0.009765625,-0.02734375,0.0,0.0,0.0
996138535,796184,0,1.001953125,-0.033203125,0.01171875,-0.021484375,0.0,0.0,0.0
996139786,796185,0,1.00390625,-0.029296875,0.013671875,-0.015625,0.0,0.0,0.0
996141036,796186,0,1.005859375,-0.033203125,0.017578125,-0.015625,0.0,0.0,0.0
996142287,796187,0,1.009765625,-0.033203125,0.017578125,-0.015625,0.0,0.0,0.0
996143537,796188,0,1.005859375,-0.02734375,0.009765625,-0.017578125,0.0,0.0,0.0
996144787,796189,0,1.01171875,-0.025390625,0.013671875,-0.01171875,0.0,0.0,0.0
996146038,796190,0,0.998046875,-0.03515625,0.00390625,-0.03125,0.0,0.0,0.0
996147289,796191,0,0.994140625,-0.037109375,0.0078125,-0.029296875,0.0,0.0,0.0
996148539,796192,0,1.01171875,-0.033203125,0.001953125,-0.03125,0.0,0.0,0.0
996149790,796193,0,1.0,-0.03515625,0.00390625,-0.03125,0.0,0.0,0.0
996151042,796194,0,1.0,-0.037109375,0.01171875,-0.025390625,0.0,0.0,0.0
996152292,796195,0,1.005859375,-0.029296875,0.0078125,-0.021484375,0.0,0.0,0.0
996153543,796196,0,1.005859375,-0.033203125,0.009765625,-0.0234375,0.0,0.0,0.0
996154794,796197,0,1.00390625,-0.03515625,0.00390625,-0.03125,0.0,0.0,0.0
996156044,796198,0,1.001953125,-0.03125,0.0078125,-0.0234375,0.0,0.0,0.0
996157294,796199,0,1.005859375,-0.03515625,0.0078125,-0.02734375,0.0,0.0,0.0
996158544,796200,0,0.998046875,-0.03515625,0.005859375,-0.029296875,0.0,0.0,0.0
996159796,796201,0,1.009765625,-0.033203125,0.01171875,-0.021484375,0.0,0.0,0.0
996161047,796202,0,1.005859375,-0.02734375,0.015625,-0.01171875,0.0,0.0,0.0
996162297,796203,0,1.001953125,-0.03125,0.013671875,-0.017578125,0.0,0.0,0.0
996163548,796204,0,1.001953125,-0.033203125,0.01171875,-0.021484375,0.0,0.0,0.0
996164800,796205,0,1.0,-0.03515625,0.01171875,-0.0234375,0.0,0.0,0.0
996166050,796206,0,1.001953125,-0.033203125,0.005859375,-0.02734375,0.0,0.0,0.0
996167300,796207,0,1.001953125,-0.033203125,0.01171875,-0.021484375,0.0,0.0,0.0
996168550,796208,0,1.0078125,-0.02734375,0.017578125,-0.009765625,0.0,0.0,0.0
996169801,796209,0,1.015625,-0.025390625,0.01171875,-0.013671875,0.0,0.0,0.0
996171052,796210,0,1.0078125,-0.029296875,0.009765625,-0.01953125,0.0,0.0,0.0
996172302,796211,0,0.998046875,-0.03125,0.013671875,-0.017578125,0.0,0.0,0.0
996173553,796212,0,1.0078125,-0.03125,0.00390625,-0.02734375,0.0,0.0,0.0
996174804,796213,0,0.99609375,-0.03515625,0.017578125,-0.017578125,0.0,0.0,0.0
996176054,796214,0,1.0,-0.0390625,0.0078125,-0.03125,0.0,0.0,0.0
996177305,796215,0,1.001953125,-0.03515625,0.00390625,-0.03125,0.0,0.0,0.0
996178556,796216,0,1.00390625,-0.03515625,0.005859375,-0.029296875,0.0,0.0,0.0
996179807,796217,0,1.00390625,-0.03125,0.005859375,-0.025390625,0.0,0.0,0.0
996181058,796218,0,1.00390625,-0.033203125,0.015625,-0.017578125,0.0,0.0,0.0
996182310,796219,0,1.00390625,-0.033203125,0.0078125,-0.025390625,0.0,0.0,0.0
996183560,796220,0,1.001953125,-0.03125,0.009765625,-0.021484375,0.0,0.0,0.0
996184810,796221,0,1.005859375,-0.033203125,0.009765625,-0.0234375,0.0,0.0,0.0
996186060,796222,0,1.009765625,-0.03515625,0.0078125,-0.02734375,0.0,0.0,0.0
996187311,796223,0,1.005859375,-0.033203125,0.00390625,-0.029296875,0.0,0.0,0.0
996188561,796224,0,1.00390625,-0.033203125,0.013671875,-0.01953125,0.0,0.0,0.0
996189813,796225,0,1.0,-0.03125,0.01171875,-0.01953125,0.0,0.0,0.0
996191063,796226,0,1.005859375,-0.03515625,0.013671875,-0.021484375,0.0,0.0,0.0
996192313,796227,0,1.00390625,-0.03125,0.01171875,-0.01953125,0.0,0.0,0.0
996193565,796228,0,1.001953125,-0.03125,0.01171875,-0.01953125,0.0,0.0,0.0
996194816,796229,0,1.0,-0.033203125,0.009765625,-0.0234375,0.0,0.0,0.0
996196066,796230,0,1.0078125,-0.03515625,0.0078125,-0.02734375,0.0,0.0,0.0
996197316,796231,0,1.0,-0.033203125,0.015625,-0.017578125,0.0,0.0,0.0
996198567,796232,0,1.00390625,-0.03125,0.01171875,-0.01953125,0.0,0.0,0.0
996199817,796233,0,1.015625,-0.02734375,0.00390625,-0.0234375,0.0,0.0,0.0
996201069,796234,0,1.001953125,-0.033203125,0.013671875,-0.01953125,0.0,0.0,0.0
996202319,796235,0,0.998046875,-0.02734375,0.01171875,-0.015625,0.0,0.0,0.0
996203570,796236,0,1.005859375,-0.033203125,0.01953125,-0.013671875,0.0,0.0,0.0
996204822,796237,0,1.0078125,-0.03125,0.01171875,-0.01953125,0.0,0.0,0.0
996206072,796238,0,1.0,-0.033203125,0.009765625,-0.0234375,0.0,0.0,0.0
996207322,796239,0,1.00390625,-0.033203125,0.013671875,-0.01953125,0.0,0.0,0.0
996208572,796240,0,1.0078125,-0.029296875,0.005859375,-0.0234375,0.0,0.0,0.0
996209823,796241,0,1.005859375,-0.03515625,0.0078125,-0.02734375,0.0,0.0,0.0
996211075,796242,0,1.009765625,-0.033203125,0.005859375,-0.02734375,0.0,0.0,0.0
996212326,796243,0,1.005859375,-0.033203125,0.009765625,-0.0234375,0.0,0.0,0.0
996213576,796244,0,1.009765625,-0.03125,0.013671875,-0.017578125,0.0,0.0,0.0
996214827,796245,0,1.00390625,-0.033203125,0.013671875,-0.01953125,0.0,0.0,0.0
996216077,796246,0,1.00390625,-0.03515625,0.009765625,-0.025390625,0.0,0.0,0.0
996217327,796247,0,1.005859375,-0.03515625,0.013671875,-0.021484375,0.0,0.0,0.0
996218578,796248,0,1.0078125,-0.02734375,0.009765625,-0.017578125,0.0,0.0,0.0
996219829,796249,0,1.009765625,-0.03125,0.009765625,-0.021484375,0.0,0.0,0.0
996221080,796250,0,1.0078125,-0.041015625,0.01171875,-0.029296875,0.0,0.0,0.0
996222332,796251,0,1.005859375,-0.03125,0.0078125,-0.0234375,0.0,0.0,0.0
996223582,796252,0,1.0078125,-0.03125,0.0,-0.03125,0.0,0.0,0.0
996224834,796253,0,1.005859375,-0.03125,0.005859375,-0.025390625,0.0,0.0,0.0
996226085,796254,0,1.013671875,-0.03125,0.005859375,-0.025390625,0.0,0.0,0.0
996227335,796255,0,1.0,-0.03515625,0.009765625,-0.025390625,0.0,0.0,0.0
996228586,796256,0,0.99609375,-0.037109375,0.0078125,-0.029296875,0.0,0.0,0.0
996229838,796257,0,1.005859375,-0.03125,0.005859375,-0.025390625,0.0,0.0,0.0
996231088,796258,0,1.0078125,-0.033203125,0.00390625,-0.029296875,0.0,0.0,0.0
996232338,796259,0,1.001953125,-0.02734375,0.015625,-0.01171875,0.0,0.0,0.0
996233589,796260,0,1.0,-0.03125,0.01171875,-0.01953125,0.0,0.0,0.0
996234839,796261,0,1.001953125,-0.037109375,0.013671875,-0.0234375,0.0,0.0,0.0
996236091,796262,0,1.00390625,-0.03515625,0.015625,-0.01953125,0.0,0.0,0.0
996237341,796263,0,1.0078125,-0.033203125,0.01171875,-0.021484375,0.0,0.0,0.0
996238592,796264,0,1.001953125,-0.037109375,0.005859375,-0.03125,0.0,0.0,0.0
996239844,796265,0,1.0078125,-0.037109375,0.005859375,-0.03125,0.0,0.0,0.0
996241094,796266,0,1.001953125,-0.03515625,0.009765625,-0.025390625,0.0,0.0,0.0
996242344,796267,0,0.998046875,-0.03125,0.01171875,-0.01953125,0.0,0.0,0.0
996243595,796268,0,0.99609375,-0.033203125,0.01171875,-0.021484375,0.0,0.0,0.0
996244846,796269,0,1.00390625,-0.033203125,0.01171875,-0.021484375,0.0,0.0,0.0
996246096,796270,0,1.005859375,-0.03515625,0.005859375,-0.029296875,0.0,0.0,0.0
996247346,796271,0,1.00390625,-0.029296875,0.009765625,-0.01953125,0.0,0.0,0.0
996248597,796272,0,1.005859375,-0.033203125,0.005859375,-0.02734375,0.0,0.0,0.0
996249847,796273,0,1.005859375,-0.03125,0.0078125,-0.0234375,0.0,0.0,0.0
996251097,796274,0,1.009765625,-0.033203125,0.00390625,-0.029296875,0.0,0.0,0.0
996252349,796275,0,1.001953125,-0.025390625,0.0078125,-0.017578125,0.0,0.0,0.0
996253599,796276,0,1.0,-0.037109375,0.005859375,-0.03125,0.0,0.0,0.0
996254850,796277,0,1.001953125,-0.029296875,0.013671875,-0.015625,0.0,0.0,0.0
996256101,796278,0,1.001953125,-0.0390625,0.0,-0.0390625,0.0,0.0,0.0
996257351,796279,0,1.001953125,-0.037109375,0.009765625,-0.02734375,0.0,0.0,0.0
996258602,796280,0,1.013671875,-0.03125,0.01171875,-0.01953125,0.0,0.0,0.0
996259853,796281,0,1.005859375,-0.033203125,0.009765625,-0.0234375,0.0,0.0,0.0
996261103,796282,0,1.00390625,-0.03125,0.013671875,-0.017578125,0.0,0.0,0.0
996262355,796283,0,1.001953125,-0.033203125,0.0078125,-0.025390625,0.0,0.0,0.0
996263606,796284,0,0.99609375,-0.033203125,0.009765625,-0.0234375,0.0,0.0,0.0
996264856,796285,0,1.0,-0.03125,0.013671875,-0.017578125,0.0,0.0,0.0
996266108,796286,0,1.005859375,-0.037109375,0.001953125,-0.03515625,0.0,0.0,0.0
996267359,796287,0,1.00390625,-0.02734375,0.009765625,-0.017578125,0.0,0.0,0.0
996268610,796288,0,1.001953125,-0.033203125,0.009765625,-0.0234375,0.0,0.0,0.0
996269860,796289,0,1.005859375,-0.03125,0.0078125,-0.0234375,0.0,0.0,0.0
996271110,796290,0,1.00390625,-0.033203125,0.013671875,-0.01953125,0.0,0.0,0.0
996272362,796291,0,1.009765625,-0.033203125,0.0078125,-0.025390625,0.0,0.0,0.0
996273614,796292,0,1.0,-0.03125,0.015625,-0.015625,0.0,0.0,0.0
996274865,796293,0,1.001953125,-0.033203125,0.009765625,-0.0234375,0.0,0.0,0.0
996276115,796294,0,1.0078125,-0.03125,0.01171875,-0.01953125,0.0,0.0,0.0
996277366,796295,0,1.015625,-0.03515625,0.01171875,-0.0234375,0.0,0.0,0.0
996278616,796296,0,1.005859375,-0.033203125,0.009765625,-0.0234375,0.0,0.0,0.0
996279867,796297,0,0.9921875,-0.029296875,0.01171875,-0.017578125,0.0,0.0,0.0
996281118,796298,0,1.01171875,-0.03515625,0.009765625,-0.025390625,0.0,0.0,0.0
996282368,796299,0,1.009765625,-0.025390625,0.015625,-0.009765625,0.0,0.0,0.0
996283619,796300,0,0.99609375,-0.029296875,0.017578125,-0.01171875,0.0,0.0,0.0
996284871,796301,0,0.990234375,-0.03125,0.015625,-0.015625,0.0,0.0,0.0
996286121,796302,0,1.0,-0.033203125,0.009765625,-0.0234375,0.0,0.0,0.0
996287371,796303,0,1.00390625,-0.02734375,0.009765625,-0.017578125,0.0,0.0,0.0
996288623,796304,0,1.0078125,-0.033203125,0.015625,-0.017578125,0.0,0.0,0.0
996289873,796305,0,1.00390625,-0.033203125,0.009765625,-0.0234375,0.0,0.0,0.0
996291124,796306,0,1.005859375,-0.03515625,0.0078125,-0.02734375,0.0,0.0,0.0
996292376,796307,0,1.001953125,-0.03125,0.01171875,-0.01953125,0.0,0.0,0.0
996293626,796308,0,1.001953125,-0.03125,0.013671875,-0.017578125,0.0,0.0,0.0
996294877,796309,0,1.00390625,-0.029296875,0.01171875,-0.017578125,0.0,0.0,0.0
996296127,796310,0,1.00390625,-0.02734375,0.015625,-0.01171875,0.0,0.0,0.0
996297377,796311,0,1.009765625,-0.0390625,0.01171875,-0.02734375,0.0,0.0,0.0
996298629,796312,0,1.00390625,-0.03125,0.009765625,-0.021484375,0.0,0.0,0.0
996299879,796313,0,1.0,-0.033203125,0.01171875,-0.021484375,0.0,0.0,0.0
996301130,796314,0,1.009765625,-0.03125,0.0078125,-0.0234375,0.0,0.0,0.0
996302381,796315,0,0.998046875,-0.029296875,0.009765625,-0.01953125,0.0,0.0,0.0
996303631,796316,0,1.009765625,-0.0390625,0.005859375,-0.033203125,0.0,0.0,0.0
996304883,796317,0,1.009765625,-0.033203125,0.001953125,-0.03125,0.0,0.0,0.0
996306134,796318,0,1.009765625,-0.029296875,0.015625,-0.013671875,0.0,0.0,0.0
996307384,796319,0,1.001953125,-0.033203125,0.015625,-0.017578125,0.0,0.0,0.0
996308635,796320,0,1.0,-0.03125,0.01171875,-0.01953125,0.0,0.0,0.0
996309887,796321,0,1.0,-0.029296875,0.009765625,-0.01953125,0.0,0.0,0.0
996311137,796322,0,0.998046875,-0.037109375,0.01171875,-0.025390625,0.0,0.0,0.0
996312388,796323,0,1.0,-0.033203125,0.005859375,-0.02734375,0.0,0.0,0.0
996313639,796324,0,1.005859375,-0.03515625,0.01171875,-0.0234375,0.0,0.0,0.0
996314889,796325,0,1.00390625,-0.037109375,0.00390625,-0.033203125,0.0,0.0,0.0
996316140,796326,0,1.005859375,-0.037109375,0.0078125,-0.029296875,0.0,0.0,0.0
996317392,796327,0,1.001953125,-0.03515625,0.009765625,-0.025390625,0.0,0.0,0.0
996318642,796328,0,1.001953125,-0.03125,0.009765625,-0.021484375,0.0,0.0,0.0
996319894,796329,0,1.005859375,-0.03515625,0.009765625,-0.025390625,0.0,0.0,0.0
996321145,796330,0,0.998046875,-0.033203125,0.013671875,-0.01953125,0.0,0.0,0.0
996322396,796331,0,1.0078125,-0.033203125,0.009765625,-0.0234375,0.0,0.0,0.0
996323647,796332,0,1.00390625,-0.03515625,0.0078125,-0.02734375,0.0,0.0,0.0
996324899,796333,0,0.998046875,-0.033203125,0.0078125,-0.025390625,0.0,0.0,0.0
996326150,796334,0,1.009765625,-0.03515625,0.005859375,-0.029296875,0.0,0.0,0.0
996327400,796335,0,1.005859375,-0.03125,0.005859375,-0.025390625,0.0,0.0,0.0
996328652,796336,0,1.001953125,-0.029296875,0.00390625,-0.025390625,0.0,0.0,0.0
996329902,796337,0,1.005859375,-0.0390625,0.00390625,-0.03515625,0.0,0.0,0.0
996331152,796338,0,1.0078125,-0.03125,0.0078125,-0.0234375,0.0,0.0,0.0
996332402,796339,0,1.0,-0.037109375,0.01171875,-0.025390625,0.0,0.0,0.0
996333653,796340,0,0.998046875,-0.03125,0.01171875,-0.01953125,0.0,0.0,0.0
996334904,796341,0,1.015625,-0.033203125,0.01171875,-0.021484375,0.0,0.0,0.0
996336154,796342,0,1.0078125,-0.037109375,0.01171875,-0.025390625,0.0,0.0,0.0
996337406,796343,0,1.0,-0.03125,0.005859375,-0.025390625,0.0,0.0,0.0
996338657,796344,0,0.99609375,-0.02734375,0.01171875,-0.015625,0.0,0.0,0.0
996339907,796345,0,1.001953125,-0.033203125,0.013671875,-0.01953125,0.0,0.0,0.0
996341158,796346,0,1.001953125,-0.03515625,0.01171875,-0.0234375,0.0,0.0,0.0
996342408,796347,0,1.0,-0.03515625,0.0078125,-0.02734375,0.0,0.0,0.0
996343659,796348,0,1.00390625,-0.029296875,0.009765625,-0.01953125,0.0,0.0,0.0
996344910,796349,0,1.0078125,-0.033203125,0.009765625,-0.0234375,0.0,0.0,0.0
996346160,796350,0,1.0,-0.033203125,0.0078125,-0.025390625,0.0,0.0,0.0
996347410,796351,0,1.001953125,-0.03125,0.005859375,-0.025390625,0.0,0.0,0.0
996348662,796352,0,1.00390625,-0.03515625,0.009765625,-0.025390625,0.0,0.0,0.0
996349912,796353,0,1.0,-0.03515625,0.013671875,-0.021484375,0.0,0.0,0.0
996351163,796354,0,1.005859375,-0.03515625,0.0078125,-0.02734375,0.0,0.0,0.0
996352413,796355,0,1.005859375,-0.037109375,0.009765625,-0.02734375,0.0,0.0,0.0
996353664,796356,0,1.0,-0.03515625,0.01171875,-0.0234375,0.0,0.0,0.0
996354915,796357,0,1.005859375,-0.03125,0.005859375,-0.025390625,0.0,0.0,0.0
996356167,796358,0,1.005859375,-0.033203125,0.0078125,-0.025390625,0.0,0.0,0.0
996357417,796359,0,1.009765625,-0.03125,0.013671875,-0.017578125,0.0,0.0,0.0
996358668,796360,0,1.005859375,-0.03515625,0.009765625,-0.025390625,0.0,0.0,0.0
996359920,796361,0,1.005859375,-0.029296875,0.005859375,-0.0234375,0.0,0.0,0.0
996361171,796362,0,1.001953125,-0.03515625,0.013671875,-0.021484375,0.0,0.0,0.0
996362422,796363,0,1.0078125,-0.03125,0.009765625,-0.021484375,0.0,0.0,0.0
996363674,796364,0,1.015625,-0.033203125,0.00390625,-0.029296875,0.0,0.0,0.0
996364924,796365,0,1.001953125,-0.029296875,0.013671875,-0.015625,0.0,0.0,0.0
996366175,796366,0,1.005859375,-0.033203125,0.0078125,-0.025390625,0.0,0.0,0.0
996367426,796367,0,1.00390625,-0.029296875,0.015625,-0.013671875,0.0,0.0,0.0
996368677,796368,0,1.001953125,-0.029296875,0.017578125,-0.01171875,0.0,0.0,0.0
996369928,796369,0,1.0,-0.037109375,0.009765625,-0.02734375,0.0,0.0,0.0
996371179,796370,0,1.00390625,-0.03125,0.009765625,-0.021484375,0.0,0.0,0.0
996372431,796371,0,1.00390625,-0.03125,0.009765625,-0.021484375,0.0,0.0,0.0
996373681,796372,0,1.005859375,-0.033203125,0.017578125,-0.015625,0.0,0.0,0.0
996374932,796373,0,1.00390625,-0.03515625,0.009765625,-0.025390625,0.0,0.0,0.0
996376182,796374,0,1.00390625,-0.03125,0.0078125,-0.0234375,0.0,0.0,0.0
996377432,796375,0,1.009765625,-0.033203125,0.013671875,-0.01953125,0.0,0.0,0.0
996378684,796376,0,1.001953125,-0.033203125,0.01171875,-0.021484375,0.0,0.0,0.0
996379934,796377,0,1.00390625,-0.037109375,0.009765625,-0.02734375,0.0,0.0,0.0
996381185,796378,0,1.001953125,-0.02734375,0.015625,-0.01171875,0.0,0.0,0.0
996382436,796379,0,1.005859375,-0.033203125,0.01171875,-0.021484375,0.0,0.0,0.0
996383687,796380,0,1.0078125,-0.03515625,0.009765625,-0.025390625,0.0,0.0,0.0
996384937,796381,0,1.009765625,-0.03515625,0.0078125,-0.02734375,0.0,0.0,0.0
996386187,796382,0,1.0,-0.03125,0.017578125,-0.013671875,0.0,0.0,0.0
996387439,796383,0,1.005859375,-0.037109375,0.005859375,-0.03125,0.0,0.0,0.0
996388690,796384,0,1.00390625,-0.03125,0.01171875,-0.01953125,0.0,0.0,0.0
996389940,796385,0,1.0,-0.03515625,0.0078125,-0.02734375,0.0,0.0,0.0
996391192,796386,0,1.0078125,-0.033203125,0.001953125,-0.03125,0.0,0.0,0.0
996392443,796387,0,1.001953125,-0.03515625,0.005859375,-0.029296875,0.0,0.0,0.0
996393694,796388,0,1.0078125,-0.03515625,0.009765625,-0.025390625,0.0,0.0,0.0
996394944,796389,0,1.0,-0.033203125,0.013671875,-0.01953125,0.0,0.0,0.0
996396194,796390,0,1.0,-0.03125,0.015625,-0.015625,0.0,0.0,0.0
996397445,796391,0,1.001953125,-0.033203125,0.0078125,-0.025390625,0.0,0.0,0.0
996398697,796392,0,1.001953125,-0.033203125,0.013671875,-0.01953125,0.0,0.0,0.0
996399947,796393,0,1.00390625,-0.03125,0.009765625,-0.021484375,0.0,0.0,0.0
996401199,796394,0,1.009765625,-0.03125,0.017578125,-0.013671875,0.0,0.0,0.0
996402449,796395,0,1.005859375,-0.03515625,0.013671875,-0.021484375,0.0,0.0,0.0
996403701,796396,0,1.001953125,-0.03125,0.0078125,-0.0234375,0.0,0.0,0.0
996404951,796397,0,0.99609375,-0.03125,0.015625,-0.015625,0.0,0.0,0.0
996406202,796398,0,1.0078125,-0.03515625,0.0078125,-0.02734375,0.0,0.0,0.0
996407454,796399,0,1.0078125,-0.033203125,0.015625,-0.017578125,0.0,0.0,0.0
996408704,796400,0,1.0078125,-0.033203125,0.009765625,-0.0234375,0.0,0.0,0.0
996409955,796401,0,1.001953125,-0.033203125,0.0078125,-0.025390625,0.0,0.0,0.0
996411206,796402,0,1.0078125,-0.02734375,0.009765625,-0.017578125,0.0,0.0,0.0
996412457,796403,0,1.001953125,-0.033203125,0.0078125,-0.025390625,0.0,0.0,0.0
996413708,796404,0,1.0078125,-0.029296875,0.017578125,-0.01171875,0.0,0.0,0.0
996414959,796405,0,1.005859375,-0.03515625,0.001953125,-0.033203125,0.0,0.0,1.709289829427839e-15
996417463,796407,0,0.998046875,-0.03125,0.01171875,-0.01953125,0.0,0.0,0.0
996418713,796408,0,1.005859375,-0.03125,0.0078125,-0.0234375,0.0,0.0,0.0
996419965,796409,0,1.005859375,-0.033203125,0.009765625,-0.0234375,0.0,0.0,0.0
996421215,796410,0,1.0,-0.03125,0.017578125,-0.013671875,0.0,0.0,0.0
996422466,796411,0,1.001953125,-0.03125,0.005859375,-0.025390625,0.0,0.0,0.0
996423716,796412,0,1.001953125,-0.03515625,0.017578125,-0.017578125,0.0,0.0,0.0
996424966,796413,0,1.001953125,-0.03515625,0.009765625,-0.025390625,0.0,0.0,0.0
996426216,796414,0,1.005859375,-0.03515625,0.013671875,-0.021484375,0.0,0.0,0.0
996427468,796415,0,1.001953125,-0.03125,0.009765625,-0.021484375,0.0,0.0,0.0
996428719,796416,0,0.998046875,-0.02734375,0.01171875,-0.015625,0.0,0.0,0.0
996429969,796417,0,1.00390625,-0.033203125,0.009765625,-0.0234375,0.0,0.0,0.0
996431221,796418,0,1.005859375,-0.029296875,0.009765625,-0.01953125,0.0,0.0,0.0
996432471,796419,0,1.005859375,-0.033203125,0.01171875,-0.021484375,0.0,0.0,0.0
996433723,796420,0,1.0,-0.03515625,0.01171875,-0.0234375,0.0,0.0,0.0
996434973,796421,0,1.00390625,-0.029296875,0.01171875,-0.017578125,0.0,0.0,0.0
996436225,796422,0,1.00390625,-0.03515625,0.0078125,-0.02734375,0.0,0.0,0.0
996437476,796423,0,1.001953125,-0.037109375,0.00390625,-0.033203125,0.0,0.0,0.0
996438727,796424,0,1.001953125,-0.03125,0.001953125,-0.029296875,0.0,0.0,0.0
996439977,796425,0,1.017578125,-0.033203125,0.009765625,-0.0234375,0.0,0.0,0.0
996441228,796426,0,1.005859375,-0.03125,0.01171875,-0.01953125,0.0,0.0,0.0
996442479,796427,0,1.00390625,-0.03125,0.009765625,-0.021484375,0.0,0.0,0.0
996443730,796428,0,1.00390625,-0.033203125,0.013671875,-0.01953125,0.0,0.0,0.0
996444981,796429,0,0.998046875,-0.03125,0.005859375,-0.025390625,0.0,0.0,0.0
996446233,796430,0,1.005859375,-0.03125,0.015625,-0.015625,0.0,0.0,0.0
996447484,796431,0,1.001953125,-0.03515625,0.017578125,-0.017578125,0.0,0.0,0.0
996448734,796432,0,1.001953125,-0.029296875,0.017578125,-0.01171875,0.0,0.0,0.0
996449984,796433,0,1.00390625,-0.033203125,0.01171875,-0.021484375,0.0,0.0,0.0
996451235,796434,0,1.001953125,-0.03125,0.013671875,-0.017578125,0.0,0.0,0.0
996452486,796435,0,1.005859375,-0.03125,0.0078125,-0.0234375,0.0,0.0,0.0
996453737,796436,0,1.005859375,-0.03125,0.005859375,-0.025390625,0.0,0.0,0.0
996454987,796437,0,0.998046875,-0.037109375,0.013671875,-0.0234375,0.0,0.0,0.0
996456238,796438,0,1.00390625,-0.033203125,0.0078125,-0.025390625,0.0,0.0,0.0
996457489,796439,0,1.005859375,-0.03515625,0.0078125,-0.02734375,0.0,0.0,0.0
996458740,796440,0,1.001953125,-0.03515625,0.01171875,-0.0234375,0.0,0.0,0.0
996459992,796441,0,1.005859375,-0.033203125,0.0078125,-0.025390625,0.0,0.0,0.0
996461242,796442,0,1.00390625,-0.02734375,0.015625,-0.01171875,0.0,0.0,0.0
996462493,796443,0,1.0,-0.02734375,0.0078125,-0.01953125,0.0,0.0,0.0
996463744,796444,0,1.00390625,-0.03125,0.001953125,-0.029296875,0.0,0.0,0.0
996464994,796445,0,0.9921875,-0.0390625,0.0078125,-0.03125,0.0,0.0,0.0
996466245,796446,0,1.001953125,-0.033203125,0.01171875,-0.021484375,0.0,0.0,0.0
996467497,796447,0,1.0078125,-0.037109375,0.00390625,-0.033203125,0.0,0.0,0.0
996468749,796448,0,1.00390625,-0.033203125,0.0078125,-0.025390625,0.0,0.0,0.0
996469999,796449,0,0.998046875,-0.03515625,0.01953125,-0.015625,0.0,0.0,0.0
996471250,796450,0,0.998046875,-0.03125,0.015625,-0.015625,0.0,0.0,0.0
996472500,796451,0,1.001953125,-0.03515625,0.00390625,-0.03125,0.0,0.0,0.0
996473752,796452,0,0.998046875,-0.033203125,0.013671875,-0.01953125,0.0,0.0,0.0
996475003,796453,0,1.0078125,-0.033203125,0.009765625,-0.0234375,0.0,0.0,0.0
996476254,796454,0,1.005859375,-0.033203125,0.01171875,-0.021484375,0.0,0.0,0.0
996477504,796455,0,1.00390625,-0.03515625,0.009765625,-0.025390625,0.0,0.0,0.0
996478756,796456,0,1.0,-0.033203125,0.0078125,-0.025390625,0.0,0.0,0.0
996480006,796457,0,1.00390625,-0.037109375,0.005859375,-0.03125,0.0,0.0,0.0
996481257,796458,0,1.00390625,-0.03515625,0.015625,-0.01953125,0.0,0.0,0.0
996482508,796459,0,1.00390625,-0.033203125,0.005859375,-0.02734375,0.0,0.0,0.0
996483759,796460,0,0.998046875,-0.03515625,0.0078125,-0.02734375,0.0,0.0,0.0
996485009,796461,0,1.001953125,-0.033203125,0.015625,-0.017578125,0.0,0.0,0.0
996486259,796462,0,1.001953125,-0.03515625,0.005859375,-0.029296875,0.0,0.0,0.0
996487510,796463,0,1.00390625,-0.03125,0.01171875,-0.01953125,0.0,0.0,0.0
996488762,796464,0,0.998046875,-0.033203125,0.0078125,-0.025390625,0.0,0.0,0.0
996490013,796465,0,1.0078125,-0.029296875,0.01171875,-0.017578125,0.0,0.0,0.0
996491271,796466,0,0.99609375,-0.03125,0.013671875,-0.017578125,0.0,0.0,0.0
996492522,796467,0,1.0,-0.03125,0.021484375,-0.009765625,0.0,0.0,0.0
996493773,796468,0,1.0,-0.033203125,0.01171875,-0.021484375,0.0,0.0,0.0
996495025,796469,0,1.005859375,-0.03515625,0.015625,-0.01953125,0.0,0.0,0.0
996496277,796470,0,1.01953125,-0.03125,0.00390625,-0.02734375,0.0,0.0,0.0
996497528,796471,0,1.0,-0.03125,0.0078125,-0.0234375,0.0,0.0,0.0
996498779,796472,0,1.00390625,-0.037109375,0.013671875,-0.0234375,0.0,0.0,0.0
996500031,796473,0,1.0078125,-0.029296875,0.01171875,-0.017578125,0.0,0.0,0.0
996501283,796474,0,1.005859375,-0.03125,0.0078125,-0.0234375,0.0,0.0,0.0
996502535,796475,0,1.001953125,-0.033203125,0.0078125,-0.025390625,0.0,0.0,0.0
996503786,796476,0,1.005859375,-0.033203125,0.01171875,-0.021484375,0.0,0.0,0.0
996505036,796477,0,1.0078125,-0.03515625,0.009765625,-0.025390625,0.0,0.0,0.0
996506287,796478,0,1.001953125,-0.033203125,0.009765625,-0.0234375,0.0,0.0,0.0
996507537,796479,0,1.005859375,-0.033203125,0.005859375,-0.02734375,0.0,0.0,0.0
996508787,796480,0,1.0,-0.03515625,0.013671875,-0.021484375,0.0,0.0,0.0
996510038,796481,0,1.0078125,-0.03125,0.009765625,-0.021484375,0.0,0.0,0.0
996511289,796482,0,1.00390625,-0.02734375,0.009765625,-0.017578125,0.0,0.0,0.0
996512539,796483,0,1.00390625,-0.029296875,0.01171875,-0.017578125,0.0,0.0,0.0
996513790,796484,0,1.0,-0.033203125,0.009765625,-0.0234375,0.0,0.0,0.0
996515042,796485,0,1.0078125,-0.03515625,0.009765625,-0.025390625,0.0,0.0,0.0
996516292,796486,0,1.001953125,-0.033203125,0.01953125,-0.013671875,0.0,0.0,0.0
996517543,796487,0,1.013671875,-0.03125,0.015625,-0.015625,0.0,0.0,0.0
996518794,796488,0,1.005859375,-0.03515625,0.009765625,-0.025390625,0.0,0.0,0.0
996520044,796489,0,1.009765625,-0.033203125,0.0234375,-0.009765625,0.0,0.0,0.0
996521294,796490,0,0.99609375,-0.025390625,0.0078125,-0.017578125,0.0,0.0,0.0
996522544,796491,0,1.01171875,-0.025390625,-0.03125,-0.056640625,0.0,0.0,0.0
996523796,796492,0,0.994140625,-0.029296875,0.009765625,-0.01953125,0.0,0.0,0.0
996525047,796493,0,0.994140625,-0.03125,0.01171875,-0.01953125,0.0,0.0,0.0
996526297,796494,0,1.00390625,-0.033203125,0.013671875,-0.01953125,0.0,0.0,0.0
996527548,796495,0,1.001953125,-0.03125,0.005859375,-0.025390625,0.0,0.0,0.0
996528800,796496,0,1.00390625,-0.03515625,0.009765625,-0.025390625,0.0,0.0,0.0
996530050,796497,0,1.00390625,-0.033203125,0.013671875,-0.01953125,0.0,0.0,0.0
996531300,796498,0,1.0,-0.03125,0.01171875,-0.01953125,0.0,0.0,0.0
996532550,796499,0,0.99609375,-0.03125,0.013671875,-0.017578125,0.0,0.0,0.0
996533801,796500,0,1.00390625,-0.033203125,0.0078125,-0.025390625,0.0,0.0,0.0
996535052,796501,0,1.005859375,-0.03515625,0.0078125,-0.02734375,0.0,0.0,0.0
996536302,796502,0,1.009765625,-0.033203125,0.009765625,-0.0234375,0.0,0.0,0.0
996537553,796503,0,1.001953125,-0.033203125,0.009765625,-0.0234375,0.0,0.0,0.0
996538804,796504,0,1.0,-0.037109375,0.009765625,-0.02734375,0.0,0.0,0.0
996540054,796505,0,1.005859375,-0.03515625,0.017578125,-0.017578125,0.0,0.0,0.0
996541305,796506,0,1.00390625,-0.033203125,0.0078125,-0.025390625,0.0,0.0,0.0
996542556,796507,0,1.001953125,-0.03515625,0.0078125,-0.02734375,0.0,0.0,0.0
996543807,796508,0,1.0078125,-0.041015625,0.001953125,-0.0390625,0.0,0.0,0.0
996545058,796509,0,1.0078125,-0.03125,0.013671875,-0.017578125,0.0,0.0,0.0
996546310,796510,0,1.009765625,-0.03125,0.009765625,-0.021484375,0.0,0.0,0.0
996547560,796511,0,1.00390625,-0.033203125,0.013671875,-0.01953125,0.0,0.0,0.0
996548810,796512,0,1.0078125,-0.029296875,0.0078125,-0.021484375,0.0,0.0,0.0
996550060,796513,0,1.001953125,-0.029296875,0.015625,-0.013671875,0.0,0.0,0.0
996551311,796514,0,0.99609375,-0.03515625,0.015625,-0.01953125,0.0,0.0,0.0
996552561,796515,0,1.0,-0.033203125,0.015625,-0.017578125,0.0,0.0,0.0
996553813,796516,0,1.005859375,-0.033203125,0.009765625,-0.0234375,0.0,0.0,0.0
996555063,796517,0,1.00390625,-0.033203125,0.0078125,-0.025390625,0.0,0.0,0.0
996556313,796518,0,1.005859375,-0.029296875,0.00390625,-0.025390625,0.0,0.0,0.0
996557565,796519,0,1.005859375,-0.029296875,0.009765625,-0.01953125,0.0,0.0,0.0
996558816,796520,0,1.0078125,-0.03515625,0.01171875,-0.0234375,0.0,0.0,0.0
996560066,796521,0,1.0,-0.037109375,0.009765625,-0.02734375,0.0,0.0,0.0
996561316,796522,0,1.005859375,-0.033203125,0.009765625,-0.0234375,0.0,0.0,0.0
996562567,796523,0,1.0078125,-0.02734375,0.013671875,-0.013671875,0.0,0.0,0.0
996563817,796524,0,1.00390625,-0.033203125,0.009765625,-0.0234375,0.0,0.0,0.0
996565069,796525,0,1.0078125,-0.03125,0.009765625,-0.021484375,0.0,0.0,0.0
996566319,796526,0,1.00390625,-0.03515625,0.009765625,-0.025390625,0.0,0.0,0.0
996567570,796527,0,1.001953125,-0.029296875,0.005859375,-0.0234375,0.0,0.0,0.0
996568822,796528,0,1.00390625,-0.033203125,0.01171875,-0.021484375,0.0,0.0,0.0
996570072,796529,0,1.0,-0.03515625,0.001953125,-0.033203125,0.0,0.0,0.0
996571322,796530,0,1.005859375,-0.03515625,0.00390625,-0.03125,0.0,0.0,0.0
996572572,796531,0,1.001953125,-0.037109375,0.017578125,-0.01953125,0.0,0.0,0.0
996573823,796532,0,1.001953125,-0.029296875,0.013671875,-0.015625,0.0,0.0,0.0
996575075,796533,0,1.0078125,-0.029296875,-0.046875,-0.076171875,0.0,0.0,0.0
996576326,796534,0,1.00390625,-0.029296875,0.013671875,-0.015625,0.0,0.0,0.0
996577576,796535,0,1.017578125,-0.025390625,0.01171875,-0.013671875,0.0,0.0,0.0
996578827,796536,0,1.00390625,-0.03125,0.009765625,-0.021484375,0.0,0.0,0.0
996580077,796537,0,1.005859375,-0.033203125,0.009765625,-0.0234375,0.0,0.0,0.0
996581327,796538,0,1.005859375,-0.033203125,0.01171875,-0.021484375,0.0,0.0,0.0
996582578,796539,0,1.005859375,-0.03125,0.013671875,-0.017578125,0.0,0.0,0.0
996583829,796540,0,1.009765625,-0.037109375,0.013671875,-0.0234375,0.0,0.0,0.0
996585080,796541,0,1.005859375,-0.03125,0.013671875,-0.017578125,0.0,0.0,0.0
996586332,796542,0,1.001953125,-0.03125,0.01171875,-0.01953125,0.0,0.0,0.0
996587582,796543,0,1.001953125,-0.029296875,0.017578125,-0.01171875,0.0,0.0,0.0
996588834,796544,0,1.00390625,-0.03515625,0.021484375,-0.013671875,0.0,0.0,0.0
996590085,796545,0,1.0078125,-0.037109375,0.015625,-0.021484375,0.0,0.0,0.0
996591335,796546,0,1.001953125,-0.03515625,0.009765625,-0.025390625,0.0,0.0,0.0
996592586,796547,0,1.00390625,-0.03125,0.009765625,-0.021484375,0.0,0.0,0.0
996593838,796548,0,1.01171875,-0.033203125,0.005859375,-0.02734375,0.0,0.0,0.0
996595088,796549,0,1.005859375,-0.03515625,0.015625,-0.01953125,0.0,0.0,0.0
996596338,796550,0,1.0078125,-0.03125,0.00390625,-0.02734375,0.0,0.0,0.0
996597589,796551,0,1.0078125,-0.0390625,0.0,-0.0390625,0.0,0.0,0.0
996598839,796552,0,0.998046875,-0.033203125,0.013671875,-0.01953125,0.0,0.0,0.0
996600091,796553,0,1.005859375,-0.03125,0.01171875,-0.01953125,0.0,0.0,0.0
996601341,796554,0,1.001953125,-0.03125,0.009765625,-0.021484375,0.0,0.0,0.0
996602592,796555,0,1.0078125,-0.03125,0.005859375,-0.025390625,0.0,0.0,0.0
996603844,796556,0,1.00390625,-0.03515625,0.01171875,-0.0234375,0.0,0.0,0.0
996605094,796557,0,1.00390625,-0.03515625,0.009765625,-0.025390625,0.0,0.0,0.0
996606344,796558,0,1.001953125,-0.029296875,0.009765625,-0.01953125,0.0,0.0,0.0
996607595,796559,0,1.001953125,-0.03515625,0.013671875,-0.021484375,0.0,0.0,0.0
996608846,796560,0,1.00390625,-0.03515625,0.013671875,-0.021484375,0.0,0.0,0.0
996610096,796561,0,1.00390625,-0.029296875,0.013671875,-0.015625,0.0,0.0,0.0
996611346,796562,0,1.0078125,-0.03125,0.01171875,-0.01953125,0.0,0.0,0.0
996612597,796563,0,1.00390625,-0.03515625,0.013671875,-0.021484375,0.0,0.0,0.0
996613847,796564,0,1.001953125,-0.03515625,0.013671875,-0.021484375,0.0,0.0,0.0
996615097,796565,0,1.001953125,-0.033203125,0.0078125,-0.025390625,0.0,0.0,0.0
996616349,796566,0,1.001953125,-0.03125,0.009765625,-0.021484375,0.0,0.0,0.0
996617599,796567,0,1.00390625,-0.033203125,0.005859375,-0.02734375,0.0,0.0,0.0
996618850,796568,0,1.001953125,-0.03125,0.01171875,-0.01953125,0.0,0.0,0.0
996620101,796569,0,1.005859375,-0.03515625,0.0078125,-0.02734375,0.0,0.0,0.0
996621351,796570,0,0.998046875,-0.03515625,0.013671875,-0.021484375,0.0,0.0,0.0
996622602,796571,0,1.013671875,-0.03125,0.009765625,-0.021484375,0.0,0.0,0.0
996623853,796572,0,0.99609375,-0.03125,0.015625,-0.015625,0.0,0.0,0.0
996625103,796573,0,1.005859375,-0.037109375,0.0078125,-0.029296875,0.0,0.0,0.0
996626355,796574,0,1.013671875,-0.029296875,0.0078125,-0.021484375,0.0,0.0,0.0
996627606,796575,0,0.99609375,-0.03125,0.017578125,-0.013671875,0.0,0.0,0.0
996628856,796576,0,1.0078125,-0.03125,0.001953125,-0.029296875,0.0,0.0,0.0
996630108,796577,0,1.00390625,-0.037109375,0.01171875,-0.025390625,0.0,0.0,0.0
996631359,796578,0,0.99609375,-0.03515625,0.005859375,-0.029296875,0.0,0.0,0.0
996632610,796579,0,1.0078125,-0.033203125,0.00390625,-0.029296875,0.0,0.0,0.0
996633860,796580,0,1.005859375,-0.03515625,0.009765625,-0.025390625,0.0,0.0,0.0
996635110,796581,0,1.001953125,-0.033203125,0.01171875,-0.021484375,0.0,0.0,0.0
996636362,796582,0,0.998046875,-0.029296875,0.0078125,-0.021484375,0.0,0.0,0.0
996637614,796583,0,1.00390625,-0.03125,0.0078125,-0.0234375,0.0,0.0,0.0
996638865,796584,0,1.0,-0.03515625,0.0078125,-0.02734375,0.0,0.0,0.0
996640115,796585,0,1.0078125,-0.037109375,0.005859375,-0.03125,0.0,0.0,0.0
996641366,796586,0,0.998046875,-0.033203125,0.005859375,-0.02734375,0.0,0.0,0.0
996642616,796587,0,1.001953125,-0.033203125,0.013671875,-0.01953125,0.0,0.0,0.0
996643867,796588,0,1.001953125,-0.03125,0.01171875,-0.01953125,0.0,0.0,0.0
996645118,796589,0,1.00390625,-0.03515625,0.0078125,-0.02734375,0.0,0.0,0.0
996646368,796590,0,1.005859375,-0.03515625,0.015625,-0.01953125,0.0,0.0,0.0
996647619,796591,0,1.00390625,-0.033203125,0.0078125,-0.025390625,0.0,0.0,0.0
996648871,796592,0,1.009765625,-0.029296875,0.009765625,-0.01953125,0.0,0.0,0.0
996650121,796593,0,0.99609375,-0.037109375,0.015625,-0.021484375,0.0,0.0,0.0
996651371,796594,0,1.009765625,-0.03125,0.01953125,-0.01171875,0.0,0.0,0.0
996652623,796595,0,1.0078125,-0.03125,0.01171875,-0.01953125,0.0,0.0,0.0
996653873,796596,0,0.994140625,-0.03515625,0.015625,-0.01953125,0.0,0.0,0.0
996655124,796597,0,1.00390625,-0.033203125,0.009765625,-0.0234375,0.0,0.0,0.0
996656376,796598,0,0.998046875,-0.03515625,0.0078125,-0.02734375,0.0,0.0,0.0
996657626,796599,0,0.998046875,-0.033203125,0.009765625,-0.0234375,0.0,0.0,0.0
996658877,796600,0,1.017578125,-0.033203125,0.009765625,-0.0234375,0.0,0.0,0.0
996660127,796601,0,1.005859375,-0.029296875,0.009765625,-0.01953125,0.0,0.0,0.0
996661377,796602,0,1.001953125,-0.03125,0.009765625,-0.021484375,0.0,0.0,0.0
996662629,796603,0,0.994140625,-0.03125,0.01171875,-0.01953125,0.0,0.0,0.0
996663879,796604,0,1.001953125,-0.033203125,0.0078125,-0.025390625,0.0,0.0,0.0
996665130,796605,0,1.001953125,-0.03125,0.013671875,-0.017578125,0.0,0.0,0.0
996666381,796606,0,1.0,-0.037109375,0.01171875,-0.025390625,0.0,0.0,0.0
996667631,796607,0,1.0,-0.033203125,0.009765625,-0.0234375,0.0,0.0,0.0
996668883,796608,0,1.0078125,-0.03125,0.00390625,-0.02734375,0.0,0.0,0.0
996670134,796609,0,1.00390625,-0.033203125,0.01171875,-0.021484375,0.0,0.0,0.0
996671384,796610,0,1.0078125,-0.03125,0.005859375,-0.025390625,0.0,0.0,0.0
996672635,796611,0,1.005859375,-0.033203125,0.009765625,-0.0234375,0.0,0.0,0.0
996673887,796612,0,1.00390625,-0.029296875,0.009765625,-0.01953125,0.0,0.0,0.0
996675137,796613,0,1.001953125,-0.033203125,0.009765625,-0.0234375,0.0,0.0,0.0
996676388,796614,0,1.009765625,-0.037109375,0.01171875,-0.025390625,0.0,0.0,0.0
996677639,796615,0,1.009765625,-0.03515625,0.013671875,-0.021484375,0.0,0.0,0.0
996678889,796616,0,1.0078125,-0.029296875,0.0,-0.029296875,0.0,0.0,0.0
996680140,796617,0,1.00390625,-0.0390625,0.013671875,-0.025390625,0.0,0.0,0.0
996681392,796618,0,1.00390625,-0.03125,0.001953125,-0.029296875,0.0,0.0,0.0
996682642,796619,0,0.998046875,-0.029296875,0.01171875,-0.017578125,0.0,0.0,0.0
996683894,796620,0,1.001953125,-0.03515625,0.0078125,-0.02734375,0.0,0.0,0.0
996685145,796621,0,1.00390625,-0.03125,0.00390625,-0.02734375,0.0,0.0,0.0
996686396,796622,0,1.005859375,-0.03515625,0.0078125,-0.02734375,0.0,0.0,0.0
996687647,796623,0,1.0078125,-0.03515625,0.009765625,-0.025390625,0.0,0.0,0.0
996688899,796624,0,1.00390625,-0.033203125,0.009765625,-0.0234375,0.0,0.0,0.0
996690150,796625,0,1.00390625,-0.037109375,0.005859375,-0.03125,0.0,0.0,0.0
996691400,796626,0,1.0078125,-0.033203125,0.01953125,-0.013671875,0.0,0.0,0.0
996692652,796627,0,1.0,-0.03125,0.00390625,-0.02734375,0.0,0.0,0.0
996693902,796628,0,1.001953125,-0.03515625,0.01171875,-0.0234375,0.0,0.0,0.0
996695152,796629,0,1.00390625,-0.033203125,0.009765625,-0.0234375,0.0,0.0,0.0
996696402,796630,0,1.00390625,-0.033203125,0.009765625,-0.0234375,0.0,0.0,0.0
996697653,796631,0,1.00390625,-0.033203125,0.01171875,-0.021484375,0.0,0.0,0.0
996698904,796632,0,1.0,-0.033203125,0.013671875,-0.01953125,0.0,0.0,0.0
996700154,796633,0,1.00390625,-0.033203125,0.01171875,-0.021484375,0.0,0.0,0.0
996701406,796634,0,0.994140625,-0.03125,0.009765625,-0.021484375,0.0,0.0,0.0
996702657,796635,0,1.009765625,-0.02734375,0.0078125,-0.01953125,0.0,0.0,0.0
996703907,796636,0,1.009765625,-0.03125,0.009765625,-0.021484375,0.0,0.0,0.0
996705158,796637,0,1.005859375,-0.03125,0.0,-0.03125,0.0,0.0,0.0
996706408,796638,0,1.0,-0.03515625,0.015625,-0.01953125,0.0,0.0,0.0
996707659,796639,0,1.009765625,-0.033203125,0.01171875,-0.021484375,0.0,0.0,0.0
996708910,796640,0,1.00390625,-0.037109375,0.009765625,-0.02734375,0.0,0.0,0.0
996710160,796641,0,1.0,-0.03515625,0.005859375,-0.029296875,0.0,0.0,0.0
996711410,796642,0,1.009765625,-0.02734375,0.01171875,-0.015625,0.0,0.0,0.0
996712662,796643,0,1.0078125,-0.03125,0.009765625,-0.021484375,0.0,0.0,0.0
996713912,796644,0,1.00390625,-0.03515625,0.01171875,-0.0234375,0.0,0.0,0.0
996715163,796645,0,1.0,-0.03125,0.013671875,-0.017578125,0.0,0.0,0.0
996716413,796646,0,1.001953125,-0.03515625,0.0078125,-0.02734375,0.0,0.0,0.0
996717664,796647,0,1.00390625,-0.033203125,0.009765625,-0.0234375,0.0,0.0,0.0
996718915,796648,0,1.0078125,-0.033203125,0.009765625,-0.0234375,0.0,0.0,0.0
996720167,796649,0,1.00390625,-0.029296875,0.009765625,-0.01953125,0.0,0.0,0.0
996721417,796650,0,1.001953125,-0.033203125,0.005859375,-0.02734375,0.0,0.0,0.0
996722668,796651,0,1.0078125,-0.03515625,0.0078125,-0.02734375,0.0,0.0,0.0
996723920,796652,0,1.005859375,-0.033203125,0.009765625,-0.0234375,0.0,0.0,0.0
996725171,796653,0,1.0078125,-0.03515625,0.0078125,-0.02734375,0.0,0.0,0.0
996726422,796654,0,1.005859375,-0.03515625,0.0078125,-0.02734375,0.0,0.0,0.0
996727674,796655,0,1.00390625,-0.033203125,0.015625,-0.017578125,0.0,0.0,0.0
996728924,796656,0,1.00390625,-0.029296875,0.0078125,-0.021484375,0.0,0.0,0.0
996730175,796657,0,1.00390625,-0.03515625,0.001953125,-0.033203125,0.0,0.0,0.0
996731426,796658,0,1.0078125,-0.041015625,0.0,-0.041015625,0.0,0.0,0.0
996732677,796659,0,1.005859375,-0.03125,0.013671875,-0.017578125,0.0,0.0,0.0
996733928,796660,0,1.00390625,-0.03515625,0.0078125,-0.02734375,0.0,0.0,0.0
996735179,796661,0,1.00390625,-0.029296875,0.013671875,-0.015625,0.0,0.0,0.0
996736431,796662,0,1.001953125,-0.033203125,0.017578125,-0.015625,0.0,0.0,0.0
996737681,796663,0,1.0078125,-0.033203125,0.005859375,-0.02734375,0.0,0.0,0.0
996738932,796664,0,1.005859375,-0.033203125,0.0078125,-0.025390625,0.0,0.0,0.0
996740182,796665,0,1.0,-0.033203125,0.009765625,-0.0234375,0.0,0.0,0.0
996741432,796666,0,1.00390625,-0.033203125,0.01171875,-0.021484375,0.0,0.0,0.0
996742684,796667,0,1.0078125,-0.03515625,0.005859375,-0.029296875,0.0,0.0,0.0
996743934,796668,0,1.001953125,-0.03515625,0.0078125,-0.02734375,0.0,0.0,0.0
996745185,796669,0,1.005859375,-0.03515625,0.0078125,-0.02734375,0.0,0.0,0.0
996746436,796670,0,1.00390625,-0.037109375,0.009765625,-0.02734375,0.0,0.0,0.0
996747687,796671,0,1.001953125,-0.037109375,0.009765625,-0.02734375,0.0,0.0,0.0
996748937,796672,0,1.0078125,-0.03515625,0.0078125,-0.02734375,0.0,0.0,0.0
996750187,796673,0,1.005859375,-0.033203125,0.01171875,-0.021484375,0.0,0.0,0.0
996751439,796674,0,1.0,-0.03515625,0.005859375,-0.029296875,0.0,0.0,0.0
996752690,796675,0,1.001953125,-0.033203125,0.0078125,-0.025390625,0.0,0.0,0.0
996753940,796676,0,1.005859375,-0.029296875,0.0078125,-0.021484375,0.0,0.0,0.0
996755192,796677,0,1.0078125,-0.029296875,0.013671875,-0.015625,0.0,0.0,0.0
996756443,796678,0,1.0,-0.03515625,0.009765625,-0.025390625,0.0,0.0,0.0
996757694,796679,0,1.0,-0.03515625,0.0078125,-0.02734375,0.0,0.0,0.0
996758944,796680,0,0.998046875,-0.029296875,0.005859375,-0.0234375,0.0,0.0,0.0
996760194,796681,0,0.99609375,-0.033203125,0.01171875,-0.021484375,0.0,0.0,0.0
996761445,796682,0,1.001953125,-0.03125,0.005859375,-0.025390625,0.0,0.0,0.0
996762697,796683,0,1.01171875,-0.03515625,0.009765625,-0.025390625,0.0,0.0,0.0
996763947,796684,0,1.001953125,-0.041015625,0.00390625,-0.037109375,0.0,0.0,0.0
996765199,796685,0,1.005859375,-0.03125,0.01171875,-0.01953125,0.0,0.0,0.0
996766449,796686,0,1.0,-0.033203125,0.009765625,-0.0234375,0.0,0.0,0.0
996767701,796687,0,1.001953125,-0.033203125,0.013671875,-0.01953125,0.0,0.0,0.0
996768951,796688,0,1.001953125,-0.03125,0.015625,-0.015625,0.0,0.0,0.0
996770202,796689,0,1.00390625,-0.033203125,0.01171875,-0.021484375,0.0,0.0,0.0
996771454,796690,0,1.0,-0.03515625,0.009765625,-0.025390625,0.0,0.0,0.0
996772704,796691,0,1.0,-0.025390625,0.013671875,-0.01171875,0.0,0.0,0.0
996773955,796692,0,0.998046875,-0.03515625,0.013671875,-0.021484375,0.0,0.0,0.0
996775206,796693,0,1.001953125,-0.033203125,0.009765625,-0.0234375,0.0,0.0,0.0
996776457,796694,0,1.0078125,-0.033203125,0.01171875,-0.021484375,0.0,0.0,0.0
996777708,796695,0,1.001953125,-0.03515625,0.001953125,-0.033203125,0.0,0.0,0.0
996778959,796696,0,1.0,-0.037109375,0.013671875,-0.0234375,0.0,0.0,0.0
996780211,796697,0,1.0078125,-0.03125,0.01171875,-0.01953125,0.0,0.0,0.0
996781463,796698,0,1.00390625,-0.037109375,0.00390625,-0.033203125,0.0,0.0,0.0
996782713,796699,0,1.001953125,-0.03125,0.013671875,-0.017578125,0.0,0.0,0.0
996783965,796700,0,0.998046875,-0.033203125,0.005859375,-0.02734375,0.0,0.0,0.0
996785215,796701,0,1.0078125,-0.03125,0.009765625,-0.021484375,0.0,0.0,0.0
996786466,796702,0,0.994140625,-0.02734375,0.017578125,-0.009765625,0.0,0.0,0.0
996787716,796703,0,1.001953125,-0.03515625,0.0078125,-0.02734375,0.0,0.0,0.0
996788966,796704,0,1.00390625,-0.03515625,0.013671875,-0.021484375,0.0,0.0,0.0
996790216,796705,0,1.00390625,-0.033203125,0.0078125,-0.025390625,0.0,0.0,0.0
996791468,796706,0,1.0,-0.03125,0.009765625,-0.021484375,0.0,0.0,0.0
996792719,796707,0,0.99609375,-0.03515625,0.01171875,-0.0234375,0.0,0.0,0.0
996793969,796708,0,0.998046875,-0.033203125,0.009765625,-0.0234375,0.0,0.0,0.0
996795221,796709,0,1.009765625,-0.03515625,0.009765625,-0.025390625,0.0,0.0,0.0
996796471,796710,0,1.0,-0.029296875,0.01171875,-0.017578125,0.0,0.0,0.0
996797723,796711,0,1.001953125,-0.03125,0.013671875,-0.017578125,0.0,0.0,0.0
996798973,796712,0,1.0078125,-0.03515625,0.001953125,-0.033203125,0.0,0.0,0.0
996800225,796713,0,1.0078125,-0.033203125,0.013671875,-0.01953125,0.0,0.0,0.0
996801476,796714,0,1.0078125,-0.033203125,0.01171875,-0.021484375,0.0,0.0,0.0
996802727,796715,0,1.001953125,-0.029296875,0.015625,-0.013671875,0.0,0.0,0.0
996803977,796716,0,0.998046875,-0.033203125,0.00390625,-0.029296875,0.0,0.0,0.0
996805228,796717,0,1.00390625,-0.03125,0.005859375,-0.025390625,0.0,0.0,0.0
996806479,796718,0,1.005859375,-0.03125,0.0078125,-0.0234375,0.0,0.0,0.0
996807730,796719,0,1.00390625,-0.03515625,0.0078125,-0.02734375,0.0,0.0,0.0
996808981,796720,0,1.005859375,-0.03515625,0.009765625,-0.025390625,0.0,0.0,0.0
996810233,796721,0,1.001953125,-0.03125,0.009765625,-0.021484375,0.0,0.0,0.0
996811484,796722,0,1.00390625,-0.033203125,0.0,-0.033203125,0.0,0.0,0.0
996812734,796723,0,1.009765625,-0.037109375,0.009765625,-0.02734375,0.0,0.0,0.0
996813984,796724,0,0.99609375,-0.03515625,0.013671875,-0.021484375,0.0,0.0,0.0
996815235,796725,0,1.0,-0.033203125,0.01171875,-0.021484375,0.0,0.0,0.0
996816486,796726,0,1.001953125,-0.029296875,0.0078125,-0.021484375,0.0,0.0,0.0
996817737,796727,0,0.99609375,-0.033203125,0.0078125,-0.025390625,0.0,0.0,0.0
996818987,796728,0,0.99609375,-0.029296875,0.009765625,-0.01953125,0.0,0.0,0.0
996820238,796729,0,1.005859375,-0.029296875,0.009765625,-0.01953125,0.0,0.0,0.0
996821489,796730,0,1.00390625,-0.03125,0.01171875,-0.01953125,0.0,0.0,0.0
996822740,796731,0,1.0078125,-0.033203125,0.009765625,-0.0234375,0.0,0.0,0.0
996823992,796732,0,1.001953125,-0.037109375,0.013671875,-0.0234375,0.0,0.0,0.0
996825242,796733,0,1.0078125,-0.03125,0.015625,-0.015625,0.0,0.0,0.0
996826493,796734,0,1.001953125,-0.029296875,0.0078125,-0.021484375,0.0,0.0,0.0
996827744,796735,0,1.009765625,-0.033203125,0.015625,-0.017578125,0.0,0.0,0.0
996828994,796736,0,1.00390625,-0.033203125,0.009765625,-0.0234375,0.0,0.0,0.0
996830245,796737,0,1.005859375,-0.033203125,0.0078125,-0.025390625,0.0,0.0,0.0
996831497,796738,0,1.005859375,-0.029296875,0.01171875,-0.017578125,0.0,0.0,0.0
996832749,796739,0,0.998046875,-0.033203125,0.013671875,-0.01953125,0.0,0.0,0.0
996833999,796740,0,1.0078125,-0.03125,0.01171875,-0.01953125,0.0,0.0,0.0
996835250,796741,0,1.005859375,-0.02734375,0.01171875,-0.015625,0.0,0.0,0.0
996836500,796742,0,1.001953125,-0.0390625,0.001953125,-0.037109375,0.0,0.0,0.0
996837752,796743,0,1.00390625,-0.029296875,0.0078125,-0.021484375,0.0,0.0,0.0
996839003,796744,0,1.015625,-0.037109375,0.005859375,-0.03125,0.0,0.0,0.0
996840254,796745,0,1.01171875,-0.03515625,0.017578125,-0.017578125,0.0,0.0,0.0
996841504,796746,0,1.001953125,-0.029296875,0.005859375,-0.0234375,0.0,0.0,0.0
996842756,796747,0,1.00390625,-0.03515625,0.009765625,-0.025390625,0.0,0.0,0.0
996844006,796748,0,0.99609375,-0.02734375,0.009765625,-0.017578125,0.0,0.0,0.0
996845257,796749,0,0.998046875,-0.025390625,-0.04296875,-0.068359375,0.0,0.0,0.0
996846508,796750,0,1.0078125,-0.033203125,0.01171875,-0.021484375,0.0,0.0,0.0
996847759,796751,0,1.00390625,-0.033203125,0.01171875,-0.021484375,0.0,0.0,0.0
996849009,796752,0,1.009765625,-0.03515625,0.009765625,-0.025390625,0.0,0.0,0.0
996850259,796753,0,1.005859375,-0.033203125,0.01171875,-0.021484375,0.0,0.0,0.0
996851510,796754,0,1.005859375,-0.0390625,0.01171875,-0.02734375,0.0,0.0,0.0
996852762,796755,0,1.0078125,-0.029296875,0.009765625,-0.01953125,0.0,0.0,0.0
996854013,796756,0,1.001953125,-0.03125,0.005859375,-0.025390625,0.0,0.0,0.0
996855271,796757,0,1.005859375,-0.03515625,0.009765625,-0.025390625,0.0,0.0,0.0
996856522,796758,0,1.0078125,-0.033203125,0.0078125,-0.025390625,0.0,0.0,0.0
996857773,796759,0,1.005859375,-0.029296875,0.009765625,-0.01953125,0.0,0.0,0.0
996859025,796760,0,1.009765625,-0.03125,0.005859375,-0.025390625,0.0,0.0,0.0
996860277,796761,0,1.001953125,-0.037109375,0.009765625,-0.02734375,0.0,0.0,0.0
996861528,796762,0,0.998046875,-0.03515625,0.013671875,-0.021484375,0.0,0.0,0.0
996862779,796763,0,1.005859375,-0.033203125,0.009765625,-0.0234375,0.0,0.0,0.0
996864031,796764,0,1.01171875,-0.037109375,0.01171875,-0.025390625,0.0,0.0,0.0
996865283,796765,0,0.98828125,-0.02734375,0.013671875,-0.013671875,0.0,0.0,0.0
996866535,796766,0,1.009765625,-0.03515625,0.0078125,-0.02734375,0.0,0.0,0.0
996867786,796767,0,1.009765625,-0.02734375,0.0078125,-0.01953125,0.0,0.0,0.0
996869036,796768,0,1.013671875,-0.03515625,0.005859375,-0.029296875,0.0,0.0,0.0
996870287,796769,0,1.01171875,-0.03515625,0.01171875,-0.0234375,0.0,0.0,0.0
996871537,796770,0,1.00390625,-0.03125,0.01171875,-0.01953125,0.0,0.0,0.0
996872787,796771,0,0.99609375,-0.03125,0.01171875,-0.01953125,0.0,0.0,0.0
996874038,796772,0,1.00390625,-0.033203125,0.015625,-0.017578125,0.0,0.0,0.0
996875289,796773,0,1.00390625,-0.033203125,0.013671875,-0.01953125,0.0,0.0,0.0
996876539,796774,0,1.005859375,-0.037109375,0.009765625,-0.02734375,0.0,0.0,0.0
996877790,796775,0,1.0078125,-0.033203125,0.01171875,-0.021484375,0.0,0.0,0.0
996879042,796776,0,1.001953125,-0.033203125,0.01171875,-0.021484375,0.0,0.0,0.0
996880292,796777,0,1.0078125,-0.03125,0.0,-0.03125,0.0,0.0,0.0
996881543,796778,0,1.001953125,-0.029296875,0.01171875,-0.017578125,0.0,0.0,0.0
996882794,796779,0,1.00390625,-0.029296875,0.013671875,-0.015625,0.0,0.0,0.0
996884044,796780,0,1.001953125,-0.033203125,0.013671875,-0.01953125,0.0,0.0,0.0
996885294,796781,0,1.0078125,-0.03125,0.0078125,-0.0234375,0.0,0.0,0.0
996886544,796782,0,1.0,-0.03515625,0.0078125,-0.02734375,0.0,0.0,0.0
996887796,796783,0,1.005859375,-0.03515625,0.01171875,-0.0234375,0.0,0.0,0.0
996889047,796784,0,1.001953125,-0.029296875,0.015625,-0.013671875,0.0,0.0,0.0
996890297,796785,0,0.99609375,-0.03515625,0.01171875,-0.0234375,0.0,0.0,0.0
996891548,796786,0,1.0078125,-0.03125,0.013671875,-0.017578125,0.0,0.0,0.0
996892800,796787,0,0.998046875,-0.033203125,0.01171875,-0.021484375,0.0,0.0,0.0
996894050,796788,0,1.009765625,-0.037109375,0.001953125,-0.03515625,0.0,0.0,0.0
996895300,796789,0,0.994140625,-0.03125,0.0078125,-0.0234375,0.0,0.0,0.0
996896550,796790,0,1.00390625,-0.02734375,0.009765625,-0.017578125,0.0,0.0,0.0
996897801,796791,0,1.0078125,-0.033203125,0.009765625,-0.0234375,0.0,0.0,0.0
996899052,796792,0,1.005859375,-0.033203125,0.015625,-0.017578125,0.0,0.0,0.0
996900302,796793,0,0.998046875,-0.033203125,0.01171875,-0.021484375,0.0,0.0,0.0
996901553,796794,0,1.0078125,-0.037109375,0.005859375,-0.03125,0.0,0.0,0.0
996902804,796795,0,1.001953125,-0.033203125,0.009765625,-0.0234375,0.0,0.0,0.0
996904054,796796,0,1.001953125,-0.03515625,0.01171875,-0.0234375,0.0,0.0,0.0
996905305,796797,0,1.00390625,-0.03125,0.00390625,-0.02734375,0.0,0.0,0.0
996906556,796798,0,0.998046875,-0.029296875,0.0078125,-0.021484375,0.0,0.0,0.0
996907807,796799,0,1.001953125,-0.033203125,0.0078125,-0.025390625,0.0,0.0,0.0
996909058,796800,0,1.00390625,-0.033203125,0.0078125,-0.025390625,0.0,0.0,0.0
996910310,796801,0,1.00390625,-0.03515625,0.01171875,-0.0234375,0.0,0.0,0.0
996911560,796802,0,1.0078125,-0.02734375,0.01171875,-0.015625,0.0,0.0,0.0
996912810,796803,0,1.00390625,-0.03515625,0.009765625,-0.025390625,0.0,0.0,0.0
996914060,796804,0,1.005859375,-0.0390625,0.009765625,-0.029296875,0.0,0.0,0.0
996915311,796805,0,1.009765625,-0.03125,0.01171875,-0.01953125,0.0,0.0,0.0
996916561,796806,0,1.009765625,-0.025390625,0.0078125,-0.017578125,0.0,0.0,0.0
996917813,796807,0,0.99609375,-0.033203125,0.005859375,-0.02734375,0.0,0.0,0.0
996919063,796808,0,1.005859375,-0.03515625,0.00390625,-0.03125,0.0,0.0,0.0
996920313,796809,0,0.990234375,-0.02734375,0.015625,-0.01171875,0.0,0.0,0.0
996921565,796810,0,1.001953125,-0.033203125,0.009765625,-0.0234375,0.0,0.0,0.0
996922816,796811,0,1.005859375,-0.033203125,0.009765625,-0.0234375,0.0,0.0,0.0
996924066,796812,0,1.0078125,-0.033203125,0.01171875,-0.021484375,0.0,0.0,0.0
996925316,796813,0,1.005859375,-0.03125,0.00390625,-0.02734375,0.0,0.0,0.0
996926567,796814,0,1.00390625,-0.033203125,0.0078125,-0.025390625,0.0,0.0,0.0
996927817,796815,0,1.0078125,-0.03125,0.009765625,-0.021484375,0.0,0.0,0.0
996929069,796816,0,1.005859375,-0.03515625,0.015625,-0.01953125,0.0,0.0,0.0
996930319,796817,0,1.00390625,-0.03515625,0.01171875,-0.0234375,0.0,0.0,0.0
996931570,796818,0,1.00390625,-0.03125,0.013671875,-0.017578125,0.0,0.0,0.0
996932822,796819,0,1.0078125,-0.03125,0.01953125,-0.01171875,0.0,0.0,0.0
996934072,796820,0,1.00390625,-0.03125,0.015625,-0.015625,0.0,0.0,0.0
996935322,796821,0,1.001953125,-0.033203125,0.015625,-0.017578125,0.0,0.0,0.0
996936572,796822,0,1.005859375,-0.033203125,0.013671875,-0.01953125,0.0,0.0,0.0
996937823,796823,0,1.0078125,-0.03515625,0.013671875,-0.021484375,0.0,0.0,0.0
996939075,796824,0,1.005859375,-0.03125,0.013671875,-0.017578125,0.0,0.0,0.0
996940326,796825,0,1.0078125,-0.03125,0.005859375,-0.025390625,0.0,0.0,0.0
996941576,796826,0,1.005859375,-0.03125,0.009765625,-0.021484375,0.0,0.0,0.0
996942827,796827,0,1.001953125,-0.033203125,0.001953125,-0.03125,0.0,0.0,0.0
996944077,796828,0,1.001953125,-0.03515625,0.013671875,-0.021484375,0.0,0.0,0.0
996945327,796829,0,1.001953125,-0.033203125,-0.001953125,-0.03515625,0.0,0.0,0.0
996946578,796830,0,0.998046875,-0.029296875,0.01171875,-0.017578125,0.0,0.0,0.0
996947829,796831,0,1.00390625,-0.03125,0.013671875,-0.017578125,0.0,0.0,0.0
996949080,796832,0,1.009765625,-0.03125,0.009765625,-0.021484375,0.0,0.0,0.0
996950332,796833,0,1.0,-0.03125,0.001953125,-0.029296875,0.0,0.0,0.0
996951582,796834,0,1.005859375,-0.03515625,0.0078125,-0.02734375,0.0,0.0,0.0
996952834,796835,0,0.9921875,-0.03515625,0.009765625,-0.025390625,0.0,0.0,0.0
996954085,796836,0,1.001953125,-0.03515625,0.009765625,-0.025390625,0.0,0.0,0.0
996955335,796837,0,1.0,-0.03515625,0.005859375,-0.029296875,0.0,0.0,0.0
996956586,796838,0,1.00390625,-0.03515625,0.009765625,-0.025390625,0.0,0.0,0.0
996957838,796839,0,1.005859375,-0.03515625,0.00390625,-0.03125,0.0,0.0,0.0
996959088,796840,0,1.00390625,-0.037109375,0.013671875,-0.0234375,0.0,0.0,0.0
996960338,796841,0,1.0078125,-0.03125,0.01171875,-0.01953125,0.0,0.0,0.0
996961589,796842,0,1.001953125,-0.033203125,0.0078125,-0.025390625,0.0,0.0,0.0
996962839,796843,0,1.001953125,-0.029296875,0.01171875,-0.017578125,0.0,0.0,0.0
996964091,796844,0,1.0,-0.03125,0.01171875,-0.01953125,0.0,0.0,0.0
996965341,796845,0,1.00390625,-0.02734375,0.0078125,-0.01953125,0.0,0.0,0.0
996966592,796846,0,1.00390625,-0.033203125,0.0078125,-0.025390625,0.0,0.0,0.0
996967844,796847,0,1.00390625,-0.03125,0.0078125,-0.0234375,0.0,0.0,0.0
996969094,796848,0,1.005859375,-0.0234375,0.013671875,-0.009765625,0.0,0.0,0.0
996970344,796849,0,1.005859375,-0.03515625,0.013671875,-0.021484375,0.0,0.0,0.0
996971595,796850,0,1.005859375,-0.033203125,0.017578125,-0.015625,0.0,0.0,0.0
996972846,796851,0,1.005859375,-0.033203125,0.013671875,-0.01953125,0.0,0.0,0.0
996974096,796852,0,1.005859375,-0.037109375,0.005859375,-0.03125,0.0,0.0,0.0
996975346,796853,0,0.998046875,-0.03125,0.009765625,-0.021484375,0.0,0.0,0.0
996976596,796854,0,1.001953125,-0.037109375,0.009765625,-0.02734375,0.0,0.0,0.0
996977848,796855,0,0.994140625,-0.03125,0.009765625,-0.021484375,0.0,0.0,0.0
996979098,796856,0,1.0078125,-0.033203125,0.009765625,-0.0234375,0.0,0.0,0.0
996980349,796857,0,1.001953125,-0.03515625,0.01171875,-0.0234375,0.0,0.0,0.0
996981601,796858,0,1.005859375,-0.033203125,0.005859375,-0.02734375,0.0,0.0,0.0
996982852,796859,0,1.0078125,-0.033203125,0.009765625,-0.0234375,0.0,0.0,0.0
996984102,796860,0,1.001953125,-0.033203125,0.005859375,-0.02734375,0.0,0.0,0.0
996985354,796861,0,1.001953125,-0.03515625,0.005859375,-0.029296875,0.0,0.0,0.0
996986605,796862,0,1.0078125,-0.03515625,0.009765625,-0.025390625,0.0,0.0,0.0
996987855,796863,0,1.0,-0.03125,0.005859375,-0.025390625,0.0,0.0,0.0
996989107,796864,0,1.0,-0.03125,0.0078125,-0.0234375,0.0,0.0,0.0
996990357,796865,0,1.00390625,-0.03515625,0.0078125,-0.02734375,0.0,0.0,0.0
996991608,796866,0,1.00390625,-0.03125,0.0078125,-0.0234375,0.0,0.0,0.0
996992859,796867,0,1.001953125,-0.03515625,0.009765625,-0.025390625,0.0,0.0,0.0
996994109,796868,0,1.00390625,-0.02734375,0.013671875,-0.013671875,0.0,0.0,0.0
996995360,796869,0,1.001953125,-0.029296875,0.009765625,-0.01953125,0.0,0.0,0.0
996996612,796870,0,1.015625,-0.03515625,0.01171875,-0.0234375,0.0,0.0,0.0
996997862,796871,0,0.99609375,-0.03125,0.021484375,-0.009765625,0.0,0.0,0.0
996999113,796872,0,1.01171875,-0.037109375,0.017578125,-0.01953125,0.0,0.0,0.0
997000365,796873,0,0.998046875,-0.03125,0.01171875,-0.01953125,0.0,0.0,0.0
997001616,796874,0,1.001953125,-0.033203125,0.013671875,-0.01953125,0.0,0.0,0.0
997002867,796875,0,1.005859375,-0.025390625,0.015625,-0.009765625,0.0,0.0,0.0
997004118,796876,0,1.009765625,-0.02734375,0.009765625,-0.017578125,0.0,0.0,0.0
997005368,796877,0,1.00390625,-0.03125,0.005859375,-0.025390625,0.0,0.0,0.0
997006619,796878,0,1.00390625,-0.033203125,0.009765625,-0.0234375,0.0,0.0,0.0
997007871,796879,0,1.0,-0.03515625,0.013671875,-0.021484375,0.0,0.0,0.0
997009121,796880,0,1.005859375,-0.03515625,0.01171875,-0.0234375,0.0,0.0,0.0
997010371,796881,0,1.001953125,-0.03125,0.005859375,-0.025390625,0.0,0.0,0.0
997011623,796882,0,1.009765625,-0.033203125,0.0078125,-0.025390625,0.0,0.0,0.0
997012873,796883,0,1.0,-0.037109375,0.009765625,-0.02734375,0.0,0.0,0.0
997014124,796884,0,1.00390625,-0.029296875,0.009765625,-0.01953125,0.0,0.0,0.0
997015376,796885,0,1.001953125,-0.03515625,0.009765625,-0.025390625,0.0,0.0,0.0
997016626,796886,0,1.0,-0.03125,0.0078125,-0.0234375,0.0,0.0,0.0
997017877,796887,0,1.0,-0.033203125,0.009765625,-0.0234375,0.0,0.0,0.0
997019127,796888,0,1.005859375,-0.03125,0.013671875,-0.017578125,0.0,0.0,0.0
997020377,796889,0,1.001953125,-0.03125,0.0078125,-0.0234375,0.0,0.0,0.0
997021629,796890,0,1.005859375,-0.033203125,0.009765625,-0.0234375,0.0,0.0,0.0
997022879,796891,0,1.009765625,-0.033203125,0.0078125,-0.025390625,0.0,0.0,0.0
997024130,796892,0,1.013671875,-0.033203125,0.005859375,-0.02734375,0.0,0.0,0.0
997025381,796893,0,1.0,-0.029296875,0.01171875,-0.017578125,0.0,0.0,0.0
997026631,796894,0,1.00390625,-0.02734375,0.009765625,-0.017578125,0.0,0.0,0.0
997027883,796895,0,1.001953125,-0.02734375,0.009765625,-0.017578125,0.0,0.0,0.0
997029134,796896,0,0.998046875,-0.03125,0.01171875,-0.01953125,0.0,0.0,0.0
997030384,796897,0,1.0,-0.029296875,0.013671875,-0.015625,0.0,0.0,0.0
997031635,796898,0,1.001953125,-0.03125,0.017578125,-0.013671875,0.0,0.0,0.0
997032887,796899,0,0.998046875,-0.033203125,0.015625,-0.017578125,0.0,0.0,0.0
997034137,796900,0,1.00390625,-0.033203125,0.009765625,-0.0234375,0.0,0.0,0.0
997035388,796901,0,0.998046875,-0.033203125,0.015625,-0.017578125,0.0,0.0,0.0
997036639,796902,0,1.001953125,-0.03515625,0.013671875,-0.021484375,0.0,0.0,0.0
997037889,796903,0,1.001953125,-0.033203125,0.015625,-0.017578125,0.0,0.0,0.0
997039140,796904,0,1.0078125,-0.029296875,0.005859375,-0.0234375,0.0,0.0,0.0
997040392,796905,0,0.99609375,-0.033203125,0.009765625,-0.0234375,0.0,0.0,0.0
997041642,796906,0,1.0,-0.03515625,0.0078125,-0.02734375,0.0,0.0,0.0
997042894,796907,0,1.00390625,-0.03125,0.009765625,-0.021484375,0.0,0.0,0.0
997044145,796908,0,1.001953125,-0.033203125,0.0078125,-0.025390625,0.0,0.0,0.0
997045396,796909,0,1.005859375,-0.03515625,0.0078125,-0.02734375,0.0,0.0,0.0
997046647,796910,0,1.005859375,-0.03515625,0.01171875,-0.0234375,0.0,0.0,0.0
997047899,796911,0,1.005859375,-0.037109375,0.0078125,-0.029296875,0.0,0.0,0.0
997049150,796912,0,1.013671875,-0.03125,0.009765625,-0.021484375,0.0,0.0,0.0
997050400,796913,0,1.001953125,-0.033203125,0.005859375,-0.02734375,0.0,0.0,0.0
997051652,796914,0,1.00390625,-0.02734375,0.009765625,-0.017578125,0.0,0.0,0.0
997052902,796915,0,0.998046875,-0.03125,0.009765625,-0.021484375,0.0,0.0,0.0
997054152,796916,0,1.001953125,-0.033203125,0.009765625,-0.0234375,0.0,0.0,0.0
997055402,796917,0,1.001953125,-0.033203125,0.013671875,-0.01953125,0.0,0.0,0.0
997056653,796918,0,1.0078125,-0.03125,0.005859375,-0.025390625,0.0,0.0,0.0
997057904,796919,0,0.998046875,-0.03515625,0.01171875,-0.0234375,0.0,0.0,0.0
997059154,796920,0,1.009765625,-0.037109375,0.013671875,-0.0234375,0.0,0.0,0.0
997060406,796921,0,1.0,-0.033203125,0.009765625,-0.0234375,0.0,0.0,0.0
997061657,796922,0,1.005859375,-0.03125,0.009765625,-0.021484375,0.0,0.0,0.0
997062907,796923,0,0.998046875,-0.033203125,0.009765625,-0.0234375,0.0,0.0,0.0
997064158,796924,0,1.00390625,-0.033203125,0.0078125,-0.025390625,0.0,0.0,0.0
997065408,796925,0,1.005859375,-0.037109375,0.0078125,-0.029296875,0.0,0.0,0.0
997066659,796926,0,1.009765625,-0.03125,0.013671875,-0.017578125,0.0,0.0,0.0
997067910,796927,0,1.005859375,-0.029296875,0.005859375,-0.0234375,0.0,0.0,0.0
997069160,796928,0,1.00390625,-0.037109375,0.009765625,-0.02734375,0.0,0.0,0.0
997070410,796929,0,0.998046875,-0.033203125,0.013671875,-0.01953125,0.0,0.0,0.0
997071662,796930,0,1.0,-0.029296875,0.013671875,-0.015625,0.0,0.0,0.0
997072912,796931,0,1.001953125,-0.03125,0.009765625,-0.021484375,0.0,0.0,0.0
997074163,796932,0,1.009765625,-0.03125,0.009765625,-0.021484375,0.0,0.0,0.0
997075413,796933,0,1.01171875,-0.033203125,0.01171875,-0.021484375,0.0,0.0,0.0
997076664,796934,0,1.01171875,-0.033203125,0.01171875,-0.021484375,0.0,0.0,0.0
997077915,796935,0,1.009765625,-0.03125,0.015625,-0.015625,0.0,0.0,0.0
997079167,796936,0,1.00390625,-0.033203125,0.015625,-0.017578125,0.0,0.0,0.0
997080417,796937,0,1.009765625,-0.037109375,0.009765625,-0.02734375,0.0,0.0,0.0
997081668,796938,0,1.005859375,-0.03125,0.0078125,-0.0234375,0.0,0.0,0.0
997082920,796939,0,1.00390625,-0.03125,0.00390625,-0.02734375,0.0,0.0,0.0
997084171,796940,0,1.009765625,-0.037109375,0.009765625,-0.02734375,0.0,0.0,0.0
997085422,796941,0,1.0078125,-0.033203125,0.013671875,-0.01953125,0.0,0.0,0.0
997086674,796942,0,1.009765625,-0.029296875,0.0078125,-0.021484375,0.0,0.0,0.0
997087924,796943,0,1.0078125,-0.03125,0.0078125,-0.0234375,0.0,0.0,0.0
997089175,796944,0,1.005859375,-0.033203125,0.009765625,-0.0234375,0.0,0.0,0.0
997090426,796945,0,0.998046875,-0.033203125,0.009765625,-0.0234375,0.0,0.0,0.0
997091677,796946,0,1.00390625,-0.03125,0.005859375,-0.025390625,0.0,0.0,0.0
997092928,796947,0,1.001953125,-0.03515625,0.009765625,-0.025390625,0.0,0.0,0.0
997094179,796948,0,1.0078125,-0.029296875,0.009765625,-0.01953125,0.0,0.0,0.0
997095431,796949,0,1.00390625,-0.03515625,0.01171875,-0.0234375,0.0,0.0,0.0
997096681,796950,0,1.005859375,-0.033203125,0.013671875,-0.01953125,0.0,0.0,0.0
997097932,796951,0,1.00390625,-0.03125,0.009765625,-0.021484375,0.0,0.0,0.0
997099182,796952,0,1.0,-0.03515625,0.013671875,-0.021484375,0.0,0.0,0.0
997100432,796953,0,1.00390625,-0.03515625,0.0078125,-0.02734375,0.0,0.0,0.0
997101684,796954,0,1.001953125,-0.029296875,0.013671875,-0.015625,0.0,0.0,0.0
997102934,796955,0,1.00390625,-0.029296875,0.0078125,-0.021484375,0.0,0.0,0.0
997104185,796956,0,1.001953125,-0.029296875,0.013671875,-0.015625,0.0,0.0,0.0
997105436,796957,0,1.005859375,-0.033203125,0.015625,-0.017578125,0.0,0.0,0.0
997106687,796958,0,1.00390625,-0.033203125,0.009765625,-0.0234375,0.0,0.0,0.0
997107937,796959,0,1.001953125,-0.03515625,0.0078125,-0.02734375,0.0,0.0,0.0
997109187,796960,0,0.998046875,-0.0234375,0.01953125,-0.00390625,0.0,0.0,0.0
997110439,796961,0,1.001953125,-0.03515625,0.015625,-0.01953125,0.0,0.0,0.0
997111690,796962,0,1.0,-0.03125,0.013671875,-0.017578125,0.0,0.0,0.0
997112940,796963,0,1.001953125,-0.033203125,0.005859375,-0.02734375,0.0,0.0,0.0
997114192,796964,0,1.0,-0.029296875,0.015625,-0.013671875,0.0,0.0,0.0
997115443,796965,0,1.005859375,-0.029296875,0.01171875,-0.017578125,0.0,0.0,0.0
997116694,796966,0,1.0,-0.033203125,0.01171875,-0.021484375,0.0,0.0,0.0
997117944,796967,0,1.005859375,-0.03125,0.00390625,-0.02734375,0.0,0.0,0.0
997119194,796968,0,1.0078125,-0.033203125,0.015625,-0.017578125,0.0,0.0,0.0
997120445,796969,0,1.001953125,-0.033203125,0.017578125,-0.015625,0.0,0.0,0.0
997121697,796970,0,1.0078125,-0.03515625,0.00390625,-0.03125,0.0,0.0,0.0
997122947,796971,0,1.00390625,-0.03515625,0.013671875,-0.021484375,0.0,0.0,0.0
997124199,796972,0,1.005859375,-0.029296875,0.013671875,-0.015625,0.0,0.0,0.0
997125449,796973,0,1.0,-0.033203125,0.0078125,-0.025390625,0.0,0.0,0.0
997126701,796974,0,1.005859375,-0.033203125,0.01171875,-0.021484375,0.0,0.0,0.0
997127951,796975,0,1.0,-0.037109375,0.009765625,-0.02734375,0.0,0.0,0.0
997129202,796976,0,1.0078125,-0.033203125,0.0078125,-0.025390625,0.0,0.0,0.0
997130454,796977,0,1.001953125,-0.03125,0.009765625,-0.021484375,0.0,0.0,0.0
997131704,796978,0,1.0078125,-0.029296875,0.00390625,-0.025390625,0.0,0.0,0.0
997132955,796979,0,1.0078125,-0.033203125,0.01171875,-0.021484375,0.0,0.0,0.0
997134206,796980,0,1.0,-0.029296875,0.013671875,-0.015625,0.0,0.0,0.0
997135457,796981,0,1.0,-0.03515625,0.00390625,-0.03125,0.0,0.0,0.0
997136708,796982,0,0.99609375,-0.033203125,0.009765625,-0.0234375,0.0,0.0,0.0
997137959,796983,0,1.005859375,-0.029296875,0.017578125,-0.01171875,0.0,0.0,0.0
997139211,796984,0,1.005859375,-0.03125,0.015625,-0.015625,0.0,0.0,0.0
997140463,796985,0,0.994140625,-0.033203125,0.013671875,-0.01953125,0.0,0.0,0.0
