t_us,frame_id,sensor_id,accX,accY,accZ,acc_sum_YZ,magX,magY,magZ
670286940,535682,0,1.0078125,-0.041015625,0.005859375,-0.03515625,0.0,0.0,23364622090240.0
670289443,535684,0,0.994140625,-0.037109375,0.017578125,-0.01953125,0.0,0.0,0.0
670290694,535685,0,1.0,-0.03515625,0.01953125,-0.015625,0.0,0.0,0.0
670291944,535686,0,1.009765625,-0.03125,0.017578125,-0.013671875,0.0,0.0,0.0
670293194,535687,0,1.0078125,-0.03515625,0.017578125,-0.017578125,0.0,0.0,0.0
670294445,535688,0,1.005859375,-0.03125,0.021484375,-0.009765625,0.0,0.0,0.0
670295697,535689,0,1.001953125,-0.03515625,0.021484375,-0.013671875,0.0,0.0,0.0
670296947,535690,0,1.001953125,-0.037109375,0.017578125,-0.01953125,0.0,0.0,-1.1368683772161603e-13
670299449,535692,0,1.00390625,-0.03515625,0.021484375,-0.013671875,0.0,0.0,0.0
670300701,535693,0,1.005859375,-0.029296875,0.015625,-0.013671875,0.0,0.0,0.0
670301951,535694,0,1.009765625,-0.037109375,0.01953125,-0.017578125,0.0,0.0,0.0
670303202,535695,0,1.001953125,-0.03515625,0.01953125,-0.015625,0.0,0.0,0.0
670304454,535696,0,0.998046875,-0.037109375,0.015625,-0.021484375,0.0,0.0,0.0
670305704,535697,0,1.01171875,-0.037109375,0.017578125,-0.01953125,0.0,0.0,0.0
670306955,535698,0,1.00390625,-0.0390625,0.01953125,-0.01953125,0.0,0.0,0.0
670308206,535699,0,1.001953125,-0.03515625,0.013671875,-0.021484375,0.0,0.0,0.0
670309457,535700,0,1.01171875,-0.037109375,0.015625,-0.021484375,0.0,0.0,0.0
670310708,535701,0,1.00390625,-0.03125,0.0234375,-0.0078125,0.0,0.0,0.0
670311959,535702,0,1.0078125,-0.03515625,0.025390625,-0.009765625,0.0,0.0,0.0
670313211,535703,0,1.009765625,-0.0390625,0.021484375,-0.017578125,0.0,0.0,0.0
670314463,535704,0,0.998046875,-0.037109375,0.01953125,-0.017578125,0.0,0.0,0.0
670315713,535705,0,1.00390625,-0.041015625,0.01953125,-0.021484375,0.0,0.0,0.0
670316965,535706,0,1.005859375,-0.03515625,0.009765625,-0.025390625,0.0,0.0,0.0
670318215,535707,0,1.001953125,-0.037109375,0.015625,-0.021484375,0.0,0.0,0.0
670319466,535708,0,0.998046875,-0.03515625,0.015625,-0.01953125,0.0,0.0,0.0
670320716,535709,0,0.998046875,-0.03515625,0.015625,-0.01953125,0.0,0.0,0.0
670321966,535710,0,1.009765625,-0.03515625,0.015625,-0.01953125,0.0,0.0,0.0
670323216,535711,0,1.00390625,-0.037109375,0.017578125,-0.01953125,0.0,0.0,0.0
670324468,535712,0,1.005859375,-0.03515625,0.021484375,-0.013671875,0.0,0.0,0.0
670325719,535713,0,1.01171875,-0.037109375,0.01953125,-0.017578125,0.0,0.0,0.0
670326969,535714,0,1.0078125,-0.037109375,0.01953125,-0.017578125,0.0,0.0,0.0
670328221,535715,0,1.001953125,-0.037109375,0.009765625,-0.02734375,0.0,0.0,0.0
670329471,535716,0,1.0078125,-0.0390625,0.021484375,-0.017578125,0.0,0.0,0.0
670330723,535717,0,1.0,-0.037109375,0.015625,-0.021484375,0.0,0.0,0.0
670331973,535718,0,1.005859375,-0.044921875,0.01953125,-0.025390625,0.0,0.0,0.0
670333225,535719,0,0.998046875,-0.03515625,0.01953125,-0.015625,0.0,0.0,0.0
670334476,535720,0,1.0078125,-0.03515625,0.017578125,-0.017578125,0.0,0.0,0.0
670335727,535721,0,0.994140625,-0.037109375,0.021484375,-0.015625,0.0,0.0,0.0
670336977,535722,0,1.015625,-0.041015625,0.017578125,-0.0234375,0.0,0.0,0.0
670338228,535723,0,1.0078125,-0.0390625,0.021484375,-0.017578125,0.0,0.0,0.0
670339479,535724,0,1.0078125,-0.04296875,0.013671875,-0.029296875,0.0,0.0,0.0
670340730,535725,0,1.00390625,-0.03515625,0.015625,-0.01953125,0.0,0.0,0.0
670341981,535726,0,0.99609375,-0.0390625,0.017578125,-0.021484375,0.0,0.0,0.0
670343233,535727,0,1.017578125,-0.03515625,0.015625,-0.01953125,0.0,0.0,0.0
670344484,535728,0,0.99609375,-0.03515625,0.017578125,-0.017578125,0.0,0.0,0.0
670345734,535729,0,1.005859375,-0.0390625,0.017578125,-0.021484375,0.0,0.0,0.0
670346984,535730,0,1.001953125,-0.041015625,0.017578125,-0.0234375,0.0,0.0,0.0
670348235,535731,0,1.0078125,-0.03515625,0.013671875,-0.021484375,0.0,0.0,0.0
670349486,535732,0,0.998046875,-0.033203125,0.015625,-0.017578125,0.0,0.0,0.0
670350737,535733,0,1.001953125,-0.03515625,0.015625,-0.01953125,0.0,0.0,0.0
670351987,535734,0,0.998046875,-0.03515625,0.015625,-0.01953125,0.0,0.0,0.0
670353238,535735,0,1.005859375,-0.037109375,0.015625,-0.021484375,0.0,0.0,0.0
670354489,535736,0,1.00390625,-0.037109375,0.01171875,-0.025390625,0.0,0.0,0.0
670355740,535737,0,1.0,-0.037109375,0.017578125,-0.01953125,0.0,0.0,0.0
670356992,535738,0,1.00390625,-0.0390625,0.009765625,-0.029296875,0.0,0.0,0.0
670358242,535739,0,0.998046875,-0.041015625,0.01953125,-0.021484375,0.0,0.0,0.0
670359493,535740,0,1.0078125,-0.037109375,0.01171875,-0.025390625,0.0,0.0,0.0
670360744,535741,0,0.99609375,-0.037109375,0.015625,-0.021484375,0.0,0.0,0.0
670361994,535742,0,1.005859375,-0.037109375,0.015625,-0.021484375,0.0,0.0,0.0
670363245,535743,0,1.0078125,-0.037109375,0.015625,-0.021484375,0.0,0.0,0.0
670364497,535744,0,0.998046875,-0.03515625,0.01953125,-0.015625,0.0,0.0,0.0
670365749,535745,0,1.017578125,-0.03125,0.01953125,-0.01171875,0.0,0.0,0.0
670366999,535746,0,0.994140625,-0.037109375,0.01953125,-0.017578125,0.0,0.0,0.0
670368250,535747,0,0.998046875,-0.0390625,0.015625,-0.0234375,0.0,0.0,0.0
670369500,535748,0,1.005859375,-0.03515625,0.01171875,-0.0234375,0.0,0.0,0.0
670370752,535749,0,1.0078125,-0.03515625,0.015625,-0.01953125,0.0,0.0,0.0
670372003,535750,0,1.005859375,-0.03515625,0.01953125,-0.015625,0.0,0.0,0.0
670373254,535751,0,1.005859375,-0.041015625,0.013671875,-0.02734375,0.0,0.0,0.0
670374504,535752,0,1.005859375,-0.037109375,0.017578125,-0.01953125,0.0,0.0,0.0
670375756,535753,0,1.0,-0.041015625,0.025390625,-0.015625,0.0,0.0,0.0
670377006,535754,0,1.001953125,-0.03125,0.015625,-0.015625,0.0,0.0,0.0
670378257,535755,0,1.0078125,-0.037109375,0.01953125,-0.017578125,0.0,0.0,0.0
670379508,535756,0,1.009765625,-0.033203125,0.017578125,-0.015625,0.0,0.0,0.0
670380759,535757,0,1.0078125,-0.037109375,0.01953125,-0.017578125,0.0,0.0,0.0
670382009,535758,0,1.00390625,-0.03515625,0.01171875,-0.0234375,0.0,0.0,0.0
670383259,535759,0,1.005859375,-0.0390625,0.01953125,-0.01953125,0.0,0.0,0.0
670384510,535760,0,1.001953125,-0.0390625,0.01953125,-0.01953125,0.0,0.0,0.0
670385762,535761,0,1.009765625,-0.037109375,0.01953125,-0.017578125,0.0,0.0,0.0
670387013,535762,0,1.001953125,-0.03125,0.015625,-0.015625,0.0,0.0,0.0
670388271,535763,0,1.005859375,-0.03515625,0.015625,-0.01953125,0.0,0.0,0.0
670389522,535764,0,1.005859375,-0.03515625,0.0234375,-0.01171875,0.0,0.0,0.0
670390773,535765,0,1.005859375,-0.033203125,0.013671875,-0.01953125,0.0,0.0,0.0
670392025,535766,0,1.001953125,-0.037109375,0.01171875,-0.025390625,0.0,0.0,0.0
670393277,535767,0,1.005859375,-0.0390625,0.005859375,-0.033203125,0.0,0.0,0.0
670394528,535768,0,0.99609375,-0.0390625,0.015625,-0.0234375,0.0,0.0,0.0
670395779,535769,0,1.00390625,-0.037109375,0.01171875,-0.025390625,0.0,0.0,0.0
670397031,535770,0,1.0078125,-0.037109375,0.01171875,-0.025390625,0.0,0.0,0.0
670398283,535771,0,1.005859375,-0.03515625,0.017578125,-0.017578125,0.0,0.0,0.0
670399535,535772,0,1.009765625,-0.03515625,0.015625,-0.01953125,0.0,0.0,0.0
670400786,535773,0,1.0078125,-0.0390625,0.015625,-0.0234375,0.0,0.0,0.0
670402036,535774,0,1.005859375,-0.0390625,0.015625,-0.0234375,0.0,0.0,0.0
670403287,535775,0,1.005859375,-0.0390625,0.021484375,-0.017578125,0.0,0.0,0.0
670404537,535776,0,1.001953125,-0.0390625,0.021484375,-0.017578125,0.0,0.0,0.0
670405787,535777,0,1.001953125,-0.0390625,0.015625,-0.0234375,0.0,0.0,0.0
670407038,535778,0,1.00390625,-0.0390625,0.017578125,-0.021484375,0.0,0.0,0.0
670408289,535779,0,1.001953125,-0.0390625,0.013671875,-0.025390625,0.0,0.0,0.0
670409539,535780,0,1.001953125,-0.0390625,0.01171875,-0.02734375,0.0,0.0,0.0
670410790,535781,0,1.005859375,-0.03515625,0.017578125,-0.017578125,0.0,0.0,0.0
670412042,535782,0,1.0078125,-0.044921875,0.015625,-0.029296875,0.0,0.0,0.0
670413292,535783,0,1.00390625,-0.037109375,0.01171875,-0.025390625,0.0,0.0,0.0
670414543,535784,0,0.998046875,-0.0390625,0.017578125,-0.021484375,0.0,0.0,0.0
670415794,535785,0,1.005859375,-0.037109375,0.015625,-0.021484375,0.0,0.0,0.0
670417044,535786,0,1.001953125,-0.041015625,0.01171875,-0.029296875,0.0,0.0,0.0
670418294,535787,0,1.00390625,-0.04296875,0.01171875,-0.03125,0.0,0.0,0.0
670419544,535788,0,1.0,-0.041015625,0.021484375,-0.01953125,0.0,0.0,0.0
670420796,535789,0,1.0078125,-0.041015625,0.025390625,-0.015625,0.0,0.0,0.0
670422047,535790,0,1.0,-0.041015625,0.015625,-0.025390625,0.0,0.0,0.0
670423297,535791,0,1.00390625,-0.033203125,0.013671875,-0.01953125,0.0,0.0,0.0
670424548,535792,0,1.001953125,-0.037109375,0.013671875,-0.0234375,0.0,0.0,0.0
670425800,535793,0,1.005859375,-0.0390625,0.015625,-0.0234375,0.0,0.0,0.0
670427050,535794,0,1.001953125,-0.03515625,0.013671875,-0.021484375,0.0,0.0,0.0
670428300,535795,0,1.005859375,-0.033203125,0.017578125,-0.015625,0.0,0.0,0.0
670429550,535796,0,1.00390625,-0.03515625,0.01953125,-0.015625,0.0,0.0,0.0
670430801,535797,0,1.001953125,-0.037109375,0.021484375,-0.015625,0.0,0.0,0.0
670432052,535798,0,1.005859375,-0.03515625,0.01953125,-0.015625,0.0,0.0,0.0
670433302,535799,0,1.001953125,-0.03515625,0.01171875,-0.0234375,0.0,0.0,0.0
670434553,535800,0,1.0,-0.037109375,0.017578125,-0.01953125,0.0,0.0,0.0
670435804,535801,0,1.0078125,-0.0390625,0.017578125,-0.021484375,0.0,0.0,0.0
670437054,535802,0,1.005859375,-0.04296875,0.0078125,-0.03515625,0.0,0.0,0.0
670438305,535803,0,1.00390625,-0.037109375,0.013671875,-0.0234375,0.0,0.0,0.0
670439556,535804,0,1.009765625,-0.037109375,0.021484375,-0.015625,0.0,0.0,0.0
670440807,535805,0,1.009765625,-0.037109375,0.015625,-0.021484375,0.0,0.0,0.0
670442058,535806,0,0.994140625,-0.03515625,0.01953125,-0.015625,0.0,0.0,0.0
670443310,535807,0,1.0,-0.033203125,0.021484375,-0.01171875,0.0,0.0,0.0
670444560,535808,0,1.009765625,-0.03515625,0.013671875,-0.021484375,0.0,0.0,0.0
670445810,535809,0,1.01171875,-0.03515625,0.01953125,-0.015625,0.0,0.0,0.0
670447060,535810,0,1.009765625,-0.0390625,0.021484375,-0.017578125,0.0,0.0,0.0
670448311,535811,0,1.0078125,-0.02734375,0.0234375,-0.00390625,0.0,0.0,0.0
670449561,535812,0,0.998046875,-0.037109375,0.01953125,-0.017578125,0.0,0.0,0.0
670450813,535813,0,1.009765625,-0.037109375,0.021484375,-0.015625,0.0,0.0,0.0
670452063,535814,0,1.001953125,-0.037109375,0.01953125,-0.017578125,0.0,0.0,0.0
670453313,535815,0,1.001953125,-0.03515625,0.017578125,-0.017578125,0.0,0.0,0.0
670454565,535816,0,0.998046875,-0.037109375,0.01171875,-0.025390625,0.0,0.0,0.0
670455816,535817,0,1.005859375,-0.03125,0.017578125,-0.013671875,0.0,0.0,0.0
670457066,535818,0,1.00390625,-0.0390625,0.017578125,-0.021484375,0.0,0.0,0.0
670458316,535819,0,1.00390625,-0.0390625,0.017578125,-0.021484375,0.0,0.0,0.0
670459567,535820,0,0.998046875,-0.037109375,0.015625,-0.021484375,0.0,0.0,0.0
670460817,535821,0,1.005859375,-0.037109375,0.015625,-0.021484375,0.0,0.0,0.0
670462069,535822,0,0.99609375,-0.037109375,0.015625,-0.021484375,0.0,0.0,0.0
670463319,535823,0,1.001953125,-0.037109375,0.013671875,-0.0234375,0.0,0.0,0.0
670464570,535824,0,1.0,-0.037109375,0.015625,-0.021484375,0.0,0.0,0.0
670465822,535825,0,1.0,-0.033203125,0.013671875,-0.01953125,0.0,0.0,0.0
670467072,535826,0,1.0078125,-0.029296875,0.017578125,-0.01171875,0.0,0.0,0.0
670468322,535827,0,1.01171875,-0.03515625,0.015625,-0.01953125,0.0,0.0,0.0
670469572,535828,0,1.00390625,-0.0390625,0.00390625,-0.03515625,0.0,0.0,0.0
670470823,535829,0,1.0078125,-0.0390625,0.00390625,-0.03515625,0.0,0.0,0.0
670472075,535830,0,0.998046875,-0.041015625,0.009765625,-0.03125,0.0,0.0,0.0
670473326,535831,0,1.005859375,-0.04296875,0.013671875,-0.029296875,0.0,0.0,0.0
670474576,535832,0,1.0,-0.0390625,0.013671875,-0.025390625,0.0,0.0,0.0
670475827,535833,0,1.0078125,-0.037109375,0.009765625,-0.02734375,0.0,0.0,0.0
670477077,535834,0,1.005859375,-0.03515625,0.01171875,-0.0234375,0.0,0.0,0.0
670478327,535835,0,1.00390625,-0.033203125,0.013671875,-0.01953125,0.0,0.0,0.0
670479578,535836,0,1.005859375,-0.037109375,0.013671875,-0.0234375,0.0,0.0,0.0
670480829,535837,0,1.001953125,-0.037109375,0.015625,-0.021484375,0.0,0.0,0.0
670482080,535838,0,1.0,-0.037109375,0.01953125,-0.017578125,0.0,0.0,0.0
670483332,535839,0,1.001953125,-0.037109375,0.01953125,-0.017578125,0.0,0.0,0.0
670484582,535840,0,1.005859375,-0.037109375,0.015625,-0.021484375,0.0,0.0,0.0
670485834,535841,0,1.005859375,-0.03515625,0.01953125,-0.015625,0.0,0.0,0.0
670487085,535842,0,1.00390625,-0.0390625,0.01953125,-0.01953125,0.0,0.0,0.0
670488335,535843,0,1.005859375,-0.0390625,0.01171875,-0.02734375,0.0,0.0,0.0
670489586,535844,0,1.0078125,-0.0390625,0.01171875,-0.02734375,0.0,0.0,0.0
670490838,535845,0,1.001953125,-0.033203125,0.013671875,-0.01953125,0.0,0.0,0.0
670492088,535846,0,1.005859375,-0.04296875,0.01953125,-0.0234375,0.0,0.0,0.0
670493338,535847,0,1.005859375,-0.03515625,0.015625,-0.01953125,0.0,0.0,0.0
670494589,535848,0,1.00390625,-0.03515625,0.009765625,-0.025390625,0.0,0.0,0.0
670495839,535849,0,1.00390625,-0.041015625,0.017578125,-0.0234375,0.0,0.0,0.0
670497091,535850,0,1.001953125,-0.037109375,0.015625,-0.021484375,0.0,0.0,0.0
670498341,535851,0,1.00390625,-0.037109375,0.0234375,-0.013671875,0.0,0.0,0.0
670499592,535852,0,1.015625,-0.037109375,0.021484375,-0.015625,0.0,0.0,0.0
670500844,535853,0,1.015625,-0.037109375,0.01171875,-0.025390625,0.0,0.0,0.0
670502094,535854,0,1.00390625,-0.03515625,0.01953125,-0.015625,0.0,0.0,0.0
670503344,535855,0,1.017578125,-0.0390625,0.017578125,-0.021484375,0.0,0.0,0.0
670504595,535856,0,1.0078125,-0.033203125,0.021484375,-0.01171875,0.0,0.0,0.0
670505846,535857,0,1.005859375,-0.03515625,0.01953125,-0.015625,0.0,0.0,0.0
670507096,535858,0,1.00390625,-0.033203125,0.0234375,-0.009765625,0.0,0.0,0.0
670508346,535859,0,1.00390625,-0.033203125,0.017578125,-0.015625,0.0,0.0,0.0
670509597,535860,0,1.005859375,-0.037109375,0.009765625,-0.02734375,0.0,0.0,0.0
670510847,535861,0,1.001953125,-0.033203125,0.01953125,-0.013671875,0.0,0.0,0.0
670512097,535862,0,1.0,-0.03515625,0.017578125,-0.017578125,0.0,0.0,0.0
670513349,535863,0,1.009765625,-0.037109375,0.01171875,-0.025390625,0.0,0.0,0.0
670514599,535864,0,1.001953125,-0.0390625,0.013671875,-0.025390625,0.0,0.0,0.0
670515850,535865,0,1.00390625,-0.03515625,0.017578125,-0.017578125,0.0,0.0,0.0
670517101,535866,0,1.005859375,-0.03515625,0.01953125,-0.015625,0.0,0.0,0.0
670518351,535867,0,1.00390625,-0.0390625,0.017578125,-0.021484375,0.0,0.0,0.0
670519602,535868,0,1.005859375,-0.03125,0.0234375,-0.0078125,0.0,0.0,0.0
670520853,535869,0,0.998046875,-0.037109375,0.01953125,-0.017578125,0.0,0.0,0.0
670522103,535870,0,0.994140625,-0.037109375,0.013671875,-0.0234375,0.0,0.0,0.0
670523355,535871,0,1.001953125,-0.037109375,0.017578125,-0.01953125,0.0,0.0,0.0
670524606,535872,0,1.0078125,-0.03515625,0.01953125,-0.015625,0.0,0.0,0.0
670525856,535873,0,1.001953125,-0.0390625,0.017578125,-0.021484375,0.0,0.0,0.0
670527108,535874,0,1.0078125,-0.037109375,0.01953125,-0.017578125,0.0,0.0,0.0
670528359,535875,0,1.001953125,-0.037109375,0.021484375,-0.015625,0.0,0.0,0.0
670529610,535876,0,1.0078125,-0.0390625,0.013671875,-0.025390625,0.0,0.0,0.0
670530860,535877,0,1.0078125,-0.037109375,0.017578125,-0.01953125,0.0,0.0,0.0
670532110,535878,0,1.00390625,-0.041015625,0.015625,-0.025390625,0.0,0.0,0.0
670533362,535879,0,1.005859375,-0.033203125,0.01953125,-0.013671875,0.0,0.0,0.0
670534614,535880,0,1.0078125,-0.03125,0.017578125,-0.013671875,0.0,0.0,0.0
670535865,535881,0,1.005859375,-0.03125,0.01953125,-0.01171875,0.0,0.0,0.0
670537115,535882,0,1.0078125,-0.029296875,0.021484375,-0.0078125,0.0,0.0,0.0
670538366,535883,0,0.998046875,-0.03515625,0.015625,-0.01953125,0.0,0.0,0.0
670539616,535884,0,1.001953125,-0.037109375,0.01953125,-0.017578125,0.0,0.0,0.0
670540867,535885,0,1.005859375,-0.0390625,0.01953125,-0.01953125,0.0,0.0,0.0
670542118,535886,0,1.001953125,-0.037109375,0.017578125,-0.01953125,0.0,0.0,0.0
670543368,535887,0,1.005859375,-0.03515625,0.009765625,-0.025390625,0.0,0.0,0.0
670544619,535888,0,1.005859375,-0.033203125,0.013671875,-0.01953125,0.0,0.0,0.0
670545871,535889,0,1.0078125,-0.0390625,0.015625,-0.0234375,0.0,0.0,0.0
670547121,535890,0,1.00390625,-0.037109375,0.0234375,-0.013671875,0.0,0.0,0.0
670548371,535891,0,1.01171875,-0.037109375,0.009765625,-0.02734375,0.0,0.0,0.0
670549623,535892,0,0.998046875,-0.03515625,0.02734375,-0.0078125,0.0,0.0,0.0
670550873,535893,0,1.0078125,-0.037109375,0.013671875,-0.0234375,0.0,0.0,0.0
670552124,535894,0,1.005859375,-0.044921875,0.005859375,-0.0390625,0.0,0.0,0.0
670553376,535895,0,1.0078125,-0.033203125,0.009765625,-0.0234375,0.0,0.0,0.0
670554626,535896,0,1.015625,-0.033203125,0.01171875,-0.021484375,0.0,0.0,0.0
670555877,535897,0,1.00390625,-0.037109375,0.025390625,-0.01171875,0.0,0.0,0.0
670557127,535898,0,1.001953125,-0.037109375,0.017578125,-0.01953125,0.0,0.0,0.0
670558377,535899,0,1.005859375,-0.037109375,0.015625,-0.021484375,0.0,0.0,0.0
670559629,535900,0,1.005859375,-0.037109375,0.01953125,-0.017578125,0.0,0.0,0.0
670560879,535901,0,1.0078125,-0.03515625,0.01953125,-0.015625,0.0,0.0,0.0
670562130,535902,0,1.001953125,-0.03515625,0.021484375,-0.013671875,0.0,0.0,0.0
670563381,535903,0,1.00390625,-0.03515625,0.015625,-0.01953125,0.0,0.0,0.0
670564631,535904,0,1.001953125,-0.037109375,0.017578125,-0.01953125,0.0,0.0,0.0
670565883,535905,0,1.0,-0.03515625,0.017578125,-0.017578125,0.0,0.0,0.0
670567134,535906,0,1.005859375,-0.037109375,0.013671875,-0.0234375,0.0,0.0,0.0
670568384,535907,0,1.00390625,-0.03125,0.021484375,-0.009765625,0.0,0.0,0.0
670569635,535908,0,0.998046875,-0.037109375,0.01171875,-0.025390625,0.0,0.0,0.0
670570887,535909,0,1.0078125,-0.037109375,0.013671875,-0.0234375,0.0,0.0,0.0
670572137,535910,0,1.001953125,-0.037109375,0.015625,-0.021484375,0.0,0.0,0.0
670573388,535911,0,1.001953125,-0.0390625,0.009765625,-0.029296875,0.0,0.0,0.0
670574639,535912,0,1.015625,-0.0390625,0.017578125,-0.021484375,0.0,0.0,0.0
670575889,535913,0,0.998046875,-0.0390625,0.021484375,-0.017578125,0.0,0.0,0.0
670577140,535914,0,0.994140625,-0.044921875,0.01171875,-0.033203125,0.0,0.0,0.0
670578392,535915,0,1.0,-0.0390625,0.015625,-0.0234375,0.0,0.0,0.0
670579642,535916,0,1.005859375,-0.044921875,0.017578125,-0.02734375,0.0,0.0,0.0
670580894,535917,0,1.0078125,-0.04296875,0.01171875,-0.03125,0.0,0.0,0.0
670582145,535918,0,1.005859375,-0.037109375,0.017578125,-0.01953125,0.0,0.0,0.0
670583396,535919,0,1.013671875,-0.03515625,0.01171875,-0.0234375,0.0,0.0,0.0
670584647,535920,0,1.001953125,-0.03515625,0.015625,-0.01953125,0.0,0.0,0.0
670585899,535921,0,1.005859375,-0.0390625,0.015625,-0.0234375,0.0,0.0,0.0
670587150,535922,0,1.0,-0.037109375,0.017578125,-0.01953125,0.0,0.0,0.0
670588400,535923,0,1.00390625,-0.041015625,0.021484375,-0.01953125,0.0,0.0,0.0
670589652,535924,0,1.005859375,-0.041015625,0.015625,-0.025390625,0.0,0.0,0.0
670590902,535925,0,1.0078125,-0.037109375,0.021484375,-0.015625,0.0,0.0,0.0
670592152,535926,0,1.0,-0.0390625,0.017578125,-0.021484375,0.0,0.0,0.0
670593402,535927,0,1.00390625,-0.0390625,0.015625,-0.0234375,0.0,0.0,0.0
670594653,535928,0,1.00390625,-0.0390625,0.021484375,-0.017578125,0.0,0.0,0.0
670595904,535929,0,1.001953125,-0.033203125,0.017578125,-0.015625,0.0,0.0,0.0
670597154,535930,0,1.001953125,-0.037109375,0.015625,-0.021484375,0.0,0.0,0.0
670598406,535931,0,1.00390625,-0.0390625,0.01953125,-0.01953125,0.0,0.0,0.0
670599657,535932,0,1.005859375,-0.03515625,0.013671875,-0.021484375,0.0,0.0,0.0
670600907,535933,0,1.00390625,-0.03515625,0.015625,-0.01953125,0.0,0.0,0.0
670602158,535934,0,1.00390625,-0.03515625,0.0078125,-0.02734375,0.0,0.0,0.0
670603408,535935,0,1.017578125,-0.0390625,0.009765625,-0.029296875,0.0,0.0,0.0
670604659,535936,0,1.00390625,-0.0390625,0.015625,-0.0234375,0.0,0.0,0.0
670605910,535937,0,1.0078125,-0.033203125,0.021484375,-0.01171875,0.0,0.0,0.0
670607160,535938,0,1.0078125,-0.037109375,0.017578125,-0.01953125,0.0,0.0,0.0
670608410,535939,0,0.9921875,-0.029296875,0.01953125,-0.009765625,0.0,0.0,0.0
670609662,535940,0,1.017578125,-0.03125,0.013671875,-0.017578125,0.0,0.0,0.0
670610912,535941,0,1.0078125,-0.03515625,0.021484375,-0.013671875,0.0,0.0,0.0
670612163,535942,0,1.001953125,-0.037109375,0.017578125,-0.01953125,0.0,0.0,0.0
670613413,535943,0,1.00390625,-0.0390625,0.017578125,-0.021484375,0.0,0.0,0.0
670614664,535944,0,1.00390625,-0.037109375,0.015625,-0.021484375,0.0,0.0,0.0
670615915,535945,0,1.005859375,-0.0390625,0.015625,-0.0234375,0.0,0.0,0.0
670617167,535946,0,1.005859375,-0.033203125,0.017578125,-0.015625,0.0,0.0,0.0
670618417,535947,0,0.998046875,-0.03515625,0.009765625,-0.025390625,0.0,0.0,0.0
670619668,535948,0,1.005859375,-0.03515625,0.017578125,-0.017578125,0.0,0.0,0.0
670620920,535949,0,1.00390625,-0.037109375,0.021484375,-0.015625,0.0,0.0,0.0
670622171,535950,0,1.001953125,-0.03515625,0.0078125,-0.02734375,0.0,0.0,0.0
670623422,535951,0,1.005859375,-0.037109375,0.013671875,-0.0234375,0.0,0.0,0.0
670624674,535952,0,1.005859375,-0.037109375,0.01953125,-0.017578125,0.0,0.0,0.0
670625924,535953,0,1.0078125,-0.03515625,0.013671875,-0.021484375,0.0,0.0,0.0
670627175,535954,0,1.009765625,-0.03125,0.015625,-0.015625,0.0,0.0,0.0
670628426,535955,0,1.00390625,-0.033203125,0.015625,-0.017578125,0.0,0.0,0.0
670629677,535956,0,1.01171875,-0.03515625,0.013671875,-0.021484375,0.0,0.0,0.0
670630928,535957,0,0.998046875,-0.03515625,0.021484375,-0.013671875,0.0,0.0,0.0
670632179,535958,0,1.00390625,-0.03125,0.01953125,-0.01171875,0.0,0.0,0.0
670633431,535959,0,1.00390625,-0.0390625,0.01953125,-0.01953125,0.0,0.0,0.0
670634681,535960,0,1.0078125,-0.03515625,0.01171875,-0.0234375,0.0,0.0,0.0
670635932,535961,0,1.00390625,-0.03515625,0.015625,-0.01953125,0.0,0.0,0.0
670637182,535962,0,1.001953125,-0.0390625,0.015625,-0.0234375,0.0,0.0,0.0
670638432,535963,0,1.001953125,-0.03515625,0.017578125,-0.017578125,0.0,0.0,0.0
670639684,535964,0,1.0,-0.03515625,0.015625,-0.01953125,0.0,0.0,0.0
670640934,535965,0,1.005859375,-0.033203125,0.013671875,-0.01953125,0.0,0.0,0.0
670642185,535966,0,1.00390625,-0.03515625,0.021484375,-0.013671875,0.0,0.0,0.0
670643436,535967,0,1.00390625,-0.041015625,0.01953125,-0.021484375,0.0,0.0,0.0
670644687,535968,0,1.0078125,-0.037109375,0.017578125,-0.01953125,0.0,0.0,0.0
670645937,535969,0,1.00390625,-0.03515625,0.01171875,-0.0234375,0.0,0.0,0.0
670647187,535970,0,1.005859375,-0.033203125,0.021484375,-0.01171875,0.0,0.0,0.0
670648439,535971,0,1.00390625,-0.033203125,0.017578125,-0.015625,0.0,0.0,0.0
670649690,535972,0,1.00390625,-0.037109375,0.017578125,-0.01953125,0.0,0.0,0.0
670650940,535973,0,1.005859375,-0.03515625,0.013671875,-0.021484375,0.0,0.0,0.0
670652192,535974,0,0.998046875,-0.0390625,0.01171875,-0.02734375,0.0,0.0,0.0
670653443,535975,0,1.001953125,-0.041015625,0.017578125,-0.0234375,0.0,0.0,0.0
670654694,535976,0,1.017578125,-0.03515625,0.013671875,-0.021484375,0.0,0.0,0.0
670655944,535977,0,1.0078125,-0.03515625,0.01953125,-0.015625,0.0,0.0,0.0
670657194,535978,0,1.0,-0.0390625,0.015625,-0.0234375,0.0,0.0,0.0
670658445,535979,0,1.005859375,-0.03515625,0.01953125,-0.015625,0.0,0.0,0.0
670659697,535980,0,1.001953125,-0.03515625,0.017578125,-0.017578125,0.0,0.0,0.0
670660947,535981,0,1.00390625,-0.03515625,0.015625,-0.01953125,0.0,0.0,0.0
670662199,535982,0,0.998046875,-0.033203125,0.015625,-0.017578125,0.0,0.0,0.0
670663449,535983,0,0.994140625,-0.03515625,0.017578125,-0.017578125,0.0,0.0,0.0
670664701,535984,0,1.0,-0.037109375,0.01953125,-0.017578125,0.0,0.0,0.0
670665951,535985,0,1.00390625,-0.029296875,0.01953125,-0.009765625,0.0,0.0,0.0
670667202,535986,0,1.0078125,-0.033203125,0.021484375,-0.01171875,0.0,0.0,0.0
670668454,535987,0,1.005859375,-0.037109375,0.01171875,-0.025390625,0.0,0.0,0.0
670669704,535988,0,0.998046875,-0.0390625,0.009765625,-0.029296875,0.0,0.0,0.0
670670955,535989,0,1.0,-0.0390625,0.013671875,-0.025390625,0.0,0.0,0.0
670672206,535990,0,1.005859375,-0.037109375,0.02734375,-0.009765625,0.0,0.0,0.0
670673457,535991,0,1.0,-0.037109375,0.015625,-0.021484375,0.0,0.0,0.0
670674708,535992,0,1.001953125,-0.041015625,0.0234375,-0.017578125,0.0,0.0,0.0
670675959,535993,0,1.00390625,-0.0390625,0.01953125,-0.01953125,0.0,0.0,0.0
670677211,535994,0,1.0,-0.037109375,0.01953125,-0.017578125,0.0,0.0,0.0
670678463,535995,0,1.001953125,-0.037109375,0.015625,-0.021484375,0.0,0.0,0.0
670679713,535996,0,1.005859375,-0.03125,0.01171875,-0.01953125,0.0,0.0,0.0
670680965,535997,0,1.005859375,-0.04296875,0.01953125,-0.0234375,0.0,0.0,0.0
670682215,535998,0,0.998046875,-0.03515625,0.015625,-0.01953125,0.0,0.0,0.0
670683466,535999,0,1.009765625,-0.029296875,0.013671875,-0.015625,0.0,0.0,0.0
670684716,536000,0,1.0,-0.037109375,0.01171875,-0.025390625,0.0,0.0,0.0
670685966,536001,0,1.001953125,-0.037109375,0.01953125,-0.017578125,0.0,0.0,0.0
670687216,536002,0,1.005859375,-0.0390625,0.00390625,-0.03515625,0.0,0.0,0.0
670688468,536003,0,1.0078125,-0.029296875,0.01171875,-0.017578125,0.0,0.0,0.0
670689719,536004,0,1.01953125,-0.037109375,0.015625,-0.021484375,0.0,0.0,0.0
670690969,536005,0,1.005859375,-0.037109375,0.01953125,-0.017578125,0.0,0.0,0.0
670692221,536006,0,1.00390625,-0.037109375,0.015625,-0.021484375,0.0,0.0,0.0
670693471,536007,0,1.005859375,-0.03515625,0.017578125,-0.017578125,0.0,0.0,0.0
670694723,536008,0,1.00390625,-0.029296875,0.015625,-0.013671875,0.0,0.0,0.0
670695973,536009,0,1.005859375,-0.029296875,0.0234375,-0.005859375,0.0,0.0,0.0
670697225,536010,0,1.00390625,-0.033203125,0.01953125,-0.013671875,0.0,0.0,0.0
670698476,536011,0,1.009765625,-0.037109375,0.017578125,-0.01953125,0.0,0.0,0.0
670699727,536012,0,1.00390625,-0.037109375,0.01171875,-0.025390625,0.0,0.0,0.0
670700977,536013,0,1.0,-0.037109375,0.015625,-0.021484375,0.0,0.0,0.0
670702228,536014,0,0.998046875,-0.041015625,0.013671875,-0.02734375,0.0,0.0,0.0
670703479,536015,0,1.001953125,-0.0390625,0.0234375,-0.015625,0.0,0.0,0.0
670704730,536016,0,1.00390625,-0.037109375,0.01953125,-0.017578125,0.0,0.0,0.0
670705981,536017,0,1.001953125,-0.037109375,0.015625,-0.021484375,0.0,0.0,0.0
670707233,536018,0,1.009765625,-0.04296875,0.01953125,-0.0234375,0.0,0.0,0.0
670708484,536019,0,1.0078125,-0.037109375,0.01171875,-0.025390625,0.0,0.0,2.413965208281077e-11
670710984,536021,0,0.998046875,-0.037109375,0.021484375,-0.015625,0.0,0.0,0.0
670712235,536022,0,1.00390625,-0.0390625,0.013671875,-0.025390625,0.0,0.0,0.0
670713486,536023,0,1.009765625,-0.033203125,0.015625,-0.017578125,0.0,0.0,0.0
670714737,536024,0,1.005859375,-0.037109375,0.01953125,-0.017578125,0.0,0.0,0.0
670715987,536025,0,1.00390625,-0.0390625,0.01953125,-0.01953125,0.0,0.0,0.0
670717238,536026,0,1.01171875,-0.041015625,0.013671875,-0.02734375,0.0,0.0,0.0
670718489,536027,0,0.998046875,-0.0390625,0.01171875,-0.02734375,0.0,0.0,0.0
670719740,536028,0,0.998046875,-0.0390625,0.021484375,-0.017578125,0.0,0.0,0.0
670720992,536029,0,1.0,-0.037109375,0.015625,-0.021484375,0.0,0.0,0.0
670722242,536030,0,0.998046875,-0.03515625,0.021484375,-0.013671875,0.0,0.0,0.0
670723493,536031,0,1.0078125,-0.03515625,0.01953125,-0.015625,0.0,0.0,0.0
670724744,536032,0,1.0,-0.033203125,0.017578125,-0.015625,0.0,0.0,0.0
670725994,536033,0,0.99609375,-0.03515625,0.013671875,-0.021484375,0.0,0.0,0.0
670727245,536034,0,0.99609375,-0.0390625,0.015625,-0.0234375,0.0,0.0,0.0
670728497,536035,0,1.00390625,-0.03515625,0.021484375,-0.013671875,0.0,0.0,0.0
670729749,536036,0,1.005859375,-0.03515625,0.017578125,-0.017578125,0.0,0.0,0.0
670730999,536037,0,1.001953125,-0.037109375,0.013671875,-0.0234375,0.0,0.0,0.0
670732250,536038,0,1.001953125,-0.041015625,0.013671875,-0.02734375,0.0,0.0,0.0
670733500,536039,0,1.00390625,-0.044921875,0.01953125,-0.025390625,0.0,0.0,0.0
670734752,536040,0,0.998046875,-0.037109375,0.013671875,-0.0234375,0.0,0.0,0.0
670736003,536041,0,1.0078125,-0.03515625,0.015625,-0.01953125,0.0,0.0,0.0
670737254,536042,0,1.01953125,-0.037109375,0.0078125,-0.029296875,0.0,0.0,0.0
670738504,536043,0,1.00390625,-0.041015625,0.0078125,-0.033203125,0.0,0.0,0.0
670739756,536044,0,1.00390625,-0.03515625,0.017578125,-0.017578125,0.0,0.0,0.0
670741006,536045,0,1.00390625,-0.037109375,0.015625,-0.021484375,0.0,0.0,0.0
670742257,536046,0,1.00390625,-0.033203125,0.017578125,-0.015625,0.0,0.0,0.0
670743508,536047,0,1.005859375,-0.0390625,0.017578125,-0.021484375,0.0,0.0,0.0
670744759,536048,0,1.005859375,-0.03125,0.017578125,-0.013671875,0.0,0.0,0.0
670746009,536049,0,1.001953125,-0.0390625,0.015625,-0.0234375,0.0,0.0,0.0
670747259,536050,0,1.0078125,-0.0390625,0.017578125,-0.021484375,0.0,0.0,0.0
670748510,536051,0,1.0,-0.037109375,0.009765625,-0.02734375,0.0,0.0,0.0
670749762,536052,0,1.005859375,-0.041015625,0.01953125,-0.021484375,0.0,0.0,0.0
670751013,536053,0,1.001953125,-0.037109375,0.015625,-0.021484375,0.0,0.0,0.0
670752271,536054,0,0.998046875,-0.037109375,0.01171875,-0.025390625,0.0,0.0,0.0
670753522,536055,0,1.009765625,-0.037109375,0.021484375,-0.015625,0.0,0.0,0.0
670754773,536056,0,1.001953125,-0.037109375,0.01171875,-0.025390625,0.0,0.0,0.0
670756025,536057,0,1.005859375,-0.033203125,0.005859375,-0.02734375,0.0,0.0,0.0
670757277,536058,0,1.0,-0.0390625,0.0234375,-0.015625,0.0,0.0,0.0
670758528,536059,0,0.998046875,-0.037109375,0.013671875,-0.0234375,0.0,0.0,0.0
670759779,536060,0,1.0078125,-0.0390625,0.01171875,-0.02734375,0.0,0.0,0.0
670761031,536061,0,1.0078125,-0.041015625,0.015625,-0.025390625,0.0,0.0,0.0
670762283,536062,0,1.0078125,-0.033203125,0.013671875,-0.01953125,0.0,0.0,0.0
670763535,536063,0,1.001953125,-0.03515625,0.015625,-0.01953125,0.0,0.0,0.0
670764786,536064,0,1.0078125,-0.04296875,0.005859375,-0.037109375,0.0,0.0,0.0
670766036,536065,0,1.00390625,-0.03515625,0.01171875,-0.0234375,0.0,0.0,0.0
670767287,536066,0,1.009765625,-0.037109375,0.015625,-0.021484375,0.0,0.0,0.0
670768537,536067,0,1.001953125,-0.033203125,0.017578125,-0.015625,0.0,0.0,0.0
670769787,536068,0,1.0,-0.037109375,0.01953125,-0.017578125,0.0,0.0,0.0
670771038,536069,0,1.00390625,-0.03515625,0.015625,-0.01953125,0.0,0.0,0.0
670772289,536070,0,1.005859375,-0.03515625,0.013671875,-0.021484375,0.0,0.0,0.0
670773539,536071,0,1.0078125,-0.0390625,0.015625,-0.0234375,0.0,0.0,0.0
670774790,536072,0,0.998046875,-0.037109375,0.015625,-0.021484375,0.0,0.0,0.0
670776042,536073,0,1.00390625,-0.03125,0.015625,-0.015625,0.0,0.0,0.0
670777292,536074,0,1.0,-0.0390625,0.015625,-0.0234375,0.0,0.0,0.0
670778543,536075,0,1.0,-0.04296875,0.021484375,-0.021484375,0.0,0.0,0.0
670779794,536076,0,1.00390625,-0.037109375,0.017578125,-0.01953125,0.0,0.0,0.0
670781044,536077,0,1.0078125,-0.041015625,0.017578125,-0.0234375,0.0,0.0,0.0
670782294,536078,0,1.0078125,-0.037109375,0.017578125,-0.01953125,0.0,0.0,0.0
670783544,536079,0,1.001953125,-0.03125,0.017578125,-0.013671875,0.0,0.0,0.0
670784796,536080,0,1.0078125,-0.03125,0.015625,-0.015625,0.0,0.0,0.0
670786047,536081,0,1.005859375,-0.03515625,0.01953125,-0.015625,0.0,0.0,0.0
670787297,536082,0,0.994140625,-0.037109375,0.0078125,-0.029296875,0.0,0.0,0.0
670788548,536083,0,1.00390625,-0.03515625,0.017578125,-0.017578125,0.0,0.0,0.0
670789800,536084,0,1.0078125,-0.037109375,0.001953125,-0.03515625,0.0,0.0,0.0
670791050,536085,0,1.009765625,-0.041015625,0.0078125,-0.033203125,0.0,0.0,0.0
670792300,536086,0,1.005859375,-0.0390625,0.013671875,-0.025390625,0.0,0.0,0.0
670793550,536087,0,1.0,-0.03125,0.01953125,-0.01171875,0.0,0.0,0.0
670794801,536088,0,1.0078125,-0.03515625,0.013671875,-0.021484375,0.0,0.0,0.0
670796052,536089,0,1.009765625,-0.037109375,0.013671875,-0.0234375,0.0,0.0,0.0
670797302,536090,0,0.9921875,-0.0390625,0.013671875,-0.025390625,0.0,0.0,0.0
670798553,536091,0,1.005859375,-0.037109375,0.013671875,-0.0234375,0.0,0.0,0.0
670799804,536092,0,1.0078125,-0.0390625,0.017578125,-0.021484375,0.0,0.0,0.0
670801054,536093,0,1.0078125,-0.0390625,0.01171875,-0.02734375,0.0,0.0,0.0
670802305,536094,0,1.001953125,-0.041015625,0.017578125,-0.0234375,0.0,0.0,0.0
670803556,536095,0,1.00390625,-0.0390625,0.017578125,-0.021484375,0.0,0.0,0.0
670804807,536096,0,1.00390625,-0.03515625,0.021484375,-0.013671875,0.0,0.0,0.0
670806058,536097,0,1.001953125,-0.033203125,0.017578125,-0.015625,0.0,0.0,0.0
670807310,536098,0,1.00390625,-0.03515625,0.017578125,-0.017578125,0.0,0.0,0.0
670808560,536099,0,1.005859375,-0.0390625,0.021484375,-0.017578125,0.0,0.0,0.0
670809810,536100,0,0.998046875,-0.03515625,0.017578125,-0.017578125,0.0,0.0,0.0
670811060,536101,0,1.0,-0.037109375,0.017578125,-0.01953125,0.0,0.0,0.0
670812311,536102,0,1.005859375,-0.037109375,0.021484375,-0.015625,0.0,0.0,0.0
670813561,536103,0,1.005859375,-0.037109375,0.021484375,-0.015625,0.0,0.0,0.0
670814813,536104,0,1.005859375,-0.029296875,0.0234375,-0.005859375,0.0,0.0,0.0
670816063,536105,0,1.00390625,-0.03515625,0.021484375,-0.013671875,0.0,0.0,0.0
670817313,536106,0,1.009765625,-0.037109375,0.017578125,-0.01953125,0.0,0.0,0.0
670818565,536107,0,1.0078125,-0.046875,0.01953125,-0.02734375,0.0,0.0,0.0
670819816,536108,0,1.00390625,-0.03125,0.017578125,-0.013671875,0.0,0.0,0.0
670821066,536109,0,1.0078125,-0.03125,0.015625,-0.015625,0.0,0.0,0.0
670822316,536110,0,0.998046875,-0.0390625,0.021484375,-0.017578125,0.0,0.0,0.0
670823567,536111,0,1.005859375,-0.037109375,0.013671875,-0.0234375,0.0,0.0,0.0
670824817,536112,0,1.001953125,-0.041015625,0.013671875,-0.02734375,0.0,0.0,0.0
670826069,536113,0,1.005859375,-0.041015625,0.01171875,-0.029296875,0.0,0.0,0.0
670827319,536114,0,1.00390625,-0.03515625,0.015625,-0.01953125,0.0,0.0,0.0
670828570,536115,0,1.00390625,-0.03515625,0.015625,-0.01953125,0.0,0.0,0.0
670829822,536116,0,1.005859375,-0.03515625,0.0234375,-0.01171875,0.0,0.0,0.0
670831072,536117,0,1.00390625,-0.03125,0.017578125,-0.013671875,0.0,0.0,0.0
670832322,536118,0,0.998046875,-0.03125,0.0234375,-0.0078125,0.0,0.0,0.0
670833572,536119,0,1.0078125,-0.033203125,0.017578125,-0.015625,0.0,0.0,0.0
670834823,536120,0,0.998046875,-0.037109375,0.015625,-0.021484375,0.0,0.0,0.0
670836075,536121,0,1.0,-0.0390625,0.015625,-0.0234375,0.0,0.0,0.0
670837326,536122,0,0.998046875,-0.0390625,0.01171875,-0.02734375,0.0,0.0,0.0
670838576,536123,0,1.00390625,-0.0390625,0.01171875,-0.02734375,0.0,0.0,0.0
670839827,536124,0,1.0,-0.0390625,0.021484375,-0.017578125,0.0,0.0,0.0
670841077,536125,0,0.998046875,-0.03515625,0.015625,-0.01953125,0.0,0.0,0.0
670842327,536126,0,1.001953125,-0.03515625,0.015625,-0.01953125,0.0,0.0,0.0
670843578,536127,0,1.01171875,-0.037109375,0.013671875,-0.0234375,0.0,0.0,0.0
670844829,536128,0,1.00390625,-0.04296875,0.017578125,-0.025390625,0.0,0.0,0.0
670846080,536129,0,0.998046875,-0.037109375,0.017578125,-0.01953125,0.0,0.0,0.0
670847332,536130,0,1.0,-0.0390625,0.009765625,-0.029296875,0.0,0.0,0.0
670848582,536131,0,1.015625,-0.046875,0.013671875,-0.033203125,0.0,0.0,0.0
670849834,536132,0,1.001953125,-0.04296875,0.01171875,-0.03125,0.0,0.0,0.0
670851085,536133,0,1.005859375,-0.041015625,0.017578125,-0.0234375,0.0,0.0,0.0
670852335,536134,0,1.005859375,-0.037109375,0.01171875,-0.025390625,0.0,0.0,0.0
670853586,536135,0,1.005859375,-0.0390625,0.013671875,-0.025390625,0.0,0.0,0.0
670854838,536136,0,1.0,-0.0390625,0.015625,-0.0234375,0.0,0.0,0.0
670856088,536137,0,1.005859375,-0.044921875,0.009765625,-0.03515625,0.0,0.0,0.0
670857338,536138,0,1.001953125,-0.0390625,0.015625,-0.0234375,0.0,0.0,0.0
670858589,536139,0,1.0,-0.03515625,0.015625,-0.01953125,0.0,0.0,0.0
670859839,536140,0,1.001953125,-0.03125,0.015625,-0.015625,0.0,0.0,0.0
670861091,536141,0,1.009765625,-0.037109375,0.01171875,-0.025390625,0.0,0.0,0.0
670862341,536142,0,1.0078125,-0.0390625,0.017578125,-0.021484375,0.0,0.0,0.0
670863592,536143,0,1.001953125,-0.03515625,0.01953125,-0.015625,0.0,0.0,0.0
670864844,536144,0,1.001953125,-0.037109375,0.013671875,-0.0234375,0.0,0.0,0.0
670866094,536145,0,1.00390625,-0.044921875,0.017578125,-0.02734375,0.0,0.0,0.0
670867344,536146,0,1.0,-0.0390625,0.005859375,-0.033203125,0.0,0.0,0.0
670868595,536147,0,0.998046875,-0.046875,0.013671875,-0.033203125,0.0,0.0,0.0
670869846,536148,0,1.0078125,-0.05078125,0.01171875,-0.0390625,0.0,0.0,0.0
670871096,536149,0,0.994140625,-0.046875,0.01171875,-0.03515625,0.0,0.0,0.0
670872346,536150,0,1.0078125,-0.044921875,0.01171875,-0.033203125,0.0,0.0,0.0
670873597,536151,0,1.00390625,-0.0390625,0.013671875,-0.025390625,0.0,0.0,0.0
670874847,536152,0,1.009765625,-0.041015625,0.017578125,-0.0234375,0.0,0.0,0.0
670876097,536153,0,1.013671875,-0.03125,0.015625,-0.015625,0.0,0.0,0.0
670877349,536154,0,0.998046875,-0.0390625,0.009765625,-0.029296875,0.0,0.0,0.0
670878599,536155,0,1.0,-0.04296875,0.0078125,-0.03515625,0.0,0.0,0.0
670879850,536156,0,1.001953125,-0.048828125,0.005859375,-0.04296875,0.0,0.0,0.0
670881101,536157,0,1.0,-0.046875,0.0078125,-0.0390625,0.0,0.0,0.0
670882351,536158,0,1.00390625,-0.046875,0.0078125,-0.0390625,0.0,0.0,0.0
670883602,536159,0,1.0,-0.044921875,0.00390625,-0.041015625,0.0,0.0,0.0
670884853,536160,0,1.0,-0.052734375,0.0078125,-0.044921875,0.0,0.0,0.0
670886103,536161,0,1.00390625,-0.052734375,0.005859375,-0.046875,0.0,0.0,0.0
670887355,536162,0,0.998046875,-0.044921875,0.009765625,-0.03515625,0.0,0.0,0.0
670888606,536163,0,0.9921875,-0.072265625,-0.00390625,-0.076171875,0.0,0.0,0.0
670889856,536164,0,1.0078125,-0.15234375,-0.07421875,-0.2265625,0.0,0.0,0.0
670891108,536165,0,0.978515625,-0.107421875,-0.041015625,-0.1484375,0.0,0.0,0.0
670892359,536166,0,1.00390625,-0.140625,-0.060546875,-0.201171875,0.0,0.0,0.0
670893610,536167,0,0.904296875,-0.470703125,-0.125,-0.595703125,0.0,0.0,0.0
670894860,536168,0,1.16796875,-0.30859375,-0.30078125,-0.609375,0.0,0.0,0.0
670896110,536169,0,0.861328125,0.46484375,0.3046875,0.76953125,0.0,0.0,0.0
670897362,536170,0,1.130859375,0.619140625,0.462890625,1.08203125,0.0,0.0,0.0
670898614,536171,0,1.0859375,0.365234375,0.30078125,0.666015625,0.0,0.0,0.0
670899865,536172,0,0.994140625,-0.01953125,0.056640625,0.037109375,0.0,0.0,0.0
670901115,536173,0,0.900390625,-0.419921875,-0.53125,-0.951171875,0.0,0.0,0.0
670902366,536174,0,0.962890625,-0.8125,-0.134765625,-0.947265625,0.0,0.0,0.0
670903616,536175,0,0.96484375,0.25,0.224609375,0.474609375,0.0,0.0,0.0
670904867,536176,0,1.095703125,0.40234375,0.279296875,0.681640625,0.0,0.0,0.0
670906118,536177,0,1.060546875,0.216796875,0.15625,0.373046875,0.0,0.0,0.0
670907368,536178,0,0.962890625,-0.0859375,0.033203125,-0.052734375,0.0,0.0,0.0
670908619,536179,0,0.91015625,-0.25390625,-0.099609375,-0.353515625,0.0,0.0,0.0
670909871,536180,0,1.060546875,-0.265625,-0.17578125,-0.44140625,0.0,0.0,0.0
670911121,536181,0,0.982421875,-0.17578125,-0.083984375,-0.259765625,0.0,0.0,0.0
670912371,536182,0,0.966796875,-0.0078125,0.046875,0.0390625,0.0,0.0,0.0
670913623,536183,0,1.064453125,0.041015625,0.0546875,0.095703125,0.0,0.0,0.0
670914873,536184,0,0.99609375,0.05078125,0.087890625,0.138671875,0.0,0.0,0.0
670916124,536185,0,0.962890625,-0.0234375,0.046875,0.0234375,0.0,0.0,0.0
670917376,536186,0,1.0,-0.10546875,-0.021484375,-0.126953125,0.0,0.0,0.0
670918626,536187,0,0.98046875,-0.15234375,-0.046875,-0.19921875,0.0,0.0,0.0
670919877,536188,0,0.98046875,-0.150390625,-0.02734375,-0.177734375,0.0,0.0,0.0
670921127,536189,0,1.013671875,-0.123046875,-0.025390625,-0.1484375,0.0,0.0,0.0
670922377,536190,0,1.033203125,-0.130859375,-0.01171875,-0.142578125,0.0,0.0,0.0
670923629,536191,0,1.00390625,-0.162109375,0.03515625,-0.126953125,0.0,0.0,0.0
670924879,536192,0,1.044921875,-0.1953125,0.037109375,-0.158203125,0.0,0.0,0.0
670926130,536193,0,1.044921875,-0.37890625,-0.095703125,-0.474609375,0.0,0.0,0.0
670927381,536194,0,0.982421875,-0.44921875,-0.103515625,-0.552734375,0.0,0.0,0.0
670928631,536195,0,0.99609375,-0.513671875,-0.15625,-0.669921875,0.0,0.0,0.0
670929883,536196,0,1.021484375,-0.5625,-0.134765625,-0.697265625,0.0,0.0,0.0
670931134,536197,0,0.982421875,-0.54296875,-0.158203125,-0.701171875,0.0,0.0,0.0
670932384,536198,0,0.958984375,-0.451171875,-0.123046875,-0.57421875,0.0,0.0,0.0
670933635,536199,0,0.95703125,-0.34765625,-0.10546875,-0.453125,0.0,0.0,0.0
670934887,536200,0,1.001953125,-0.265625,-0.083984375,-0.349609375,0.0,0.0,0.0
670936137,536201,0,1.01953125,-0.126953125,-0.0390625,-0.166015625,0.0,0.0,0.0
670937388,536202,0,1.001953125,-0.0546875,-0.025390625,-0.080078125,0.0,0.0,0.0
670938639,536203,0,1.0390625,0.056640625,0.01171875,0.068359375,0.0,0.0,0.0
670939889,536204,0,1.015625,0.08984375,0.0390625,0.12890625,0.0,0.0,0.0
670941140,536205,0,0.984375,0.076171875,0.025390625,0.1015625,0.0,0.0,0.0
670942392,536206,0,1.00390625,0.01171875,0.01953125,0.03125,0.0,0.0,0.0
670943642,536207,0,1.00390625,0.00390625,0.017578125,0.021484375,0.0,0.0,0.0
670944894,536208,0,0.990234375,0.00390625,0.005859375,0.009765625,0.0,0.0,0.0
670946145,536209,0,0.99609375,-0.13671875,-0.017578125,-0.154296875,0.0,0.0,0.0
670947396,536210,0,1.041015625,-0.18359375,-0.076171875,-0.259765625,0.0,0.0,0.0
670948647,536211,0,1.005859375,-0.203125,-0.037109375,-0.240234375,0.0,0.0,0.0
670949899,536212,0,0.974609375,-0.15234375,-0.060546875,-0.212890625,0.0,0.0,0.0
670951150,536213,0,0.984375,-0.126953125,-0.0390625,-0.166015625,0.0,0.0,0.0
670952400,536214,0,1.01953125,-0.111328125,-0.0390625,-0.150390625,0.0,0.0,0.0
670953652,536215,0,0.986328125,-0.16796875,-0.064453125,-0.232421875,0.0,0.0,0.0
670954902,536216,0,0.947265625,-0.4609375,-0.333984375,-0.794921875,0.0,0.0,0.0
670956152,536217,0,0.966796875,-1.896484375,-0.51171875,-2.408203125,0.0,0.0,0.0
670957402,536218,0,0.912109375,-3.505859375,-1.1015625,-4.607421875,0.0,0.0,0.0
670958653,536219,0,1.2734375,-3.47265625,-1.25,-4.72265625,0.0,0.0,0.0
670959904,536220,0,-0.146484375,-4.0,-1.158203125,-5.158203125,0.0,0.0,0.0
670961154,536221,0,-0.0859375,-4.0,-3.71484375,-7.71484375,0.0,0.0,0.0
670962406,536222,0,3.279296875,-4.0,-2.18359375,-6.18359375,0.0,0.0,0.0
670963657,536223,0,0.724609375,-2.033203125,-2.359375,-4.392578125,0.0,0.0,0.0
670964907,536224,0,0.0234375,-0.041015625,-1.140625,-1.181640625,0.0,0.0,0.0
670966158,536225,0,1.3203125,1.859375,-0.94140625,0.91796875,0.0,0.0,0.0
670967408,536226,0,2.07421875,3.470703125,-0.30078125,3.169921875,0.0,0.0,0.0
670968659,536227,0,0.9140625,3.998046875,0.87109375,4.869140625,0.0,0.0,0.0
670969910,536228,0,0.294921875,3.998046875,1.142578125,5.140625,0.0,0.0,0.0
670971160,536229,0,1.47265625,3.998046875,1.634765625,5.6328125,0.0,0.0,0.0
670972410,536230,0,1.720703125,3.998046875,1.974609375,5.97265625,0.0,0.0,0.0
670973662,536231,0,0.892578125,3.998046875,2.02734375,6.025390625,0.0,0.0,0.0
670974912,536232,0,1.134765625,3.998046875,1.806640625,5.8046875,0.0,0.0,0.0
670976163,536233,0,1.46484375,3.998046875,1.662109375,5.66015625,0.0,0.0,0.0
670977413,536234,0,1.01171875,3.671875,1.234375,4.90625,0.0,0.0,0.0
670978664,536235,0,0.916015625,2.515625,0.728515625,3.244140625,0.0,0.0,0.0
670979915,536236,0,1.013671875,1.232421875,0.30078125,1.533203125,0.0,0.0,0.0
670981167,536237,0,1.033203125,-0.005859375,-0.2265625,-0.232421875,0.0,0.0,0.0
670982417,536238,0,1.1484375,-1.1328125,-0.60546875,-1.73828125,0.0,0.0,0.0
670983668,536239,0,1.056640625,-2.068359375,-0.78515625,-2.853515625,0.0,0.0,0.0
670984920,536240,0,0.80859375,-2.830078125,-1.041015625,-3.87109375,0.0,0.0,0.0
670986171,536241,0,0.927734375,-3.34375,-1.142578125,-4.486328125,0.0,0.0,0.0
670987422,536242,0,0.85546875,-3.587890625,-1.1015625,-4.689453125,0.0,0.0,0.0
670988674,536243,0,0.72265625,-3.525390625,-1.171875,-4.697265625,0.0,0.0,0.0
670989924,536244,0,0.9296875,-3.248046875,-1.07421875,-4.322265625,0.0,0.0,0.0
670991175,536245,0,0.998046875,-2.7421875,-0.9375,-3.6796875,0.0,0.0,0.0
670992426,536246,0,0.97265625,-2.107421875,-0.7890625,-2.896484375,0.0,0.0,0.0
670993677,536247,0,0.998046875,-1.337890625,-0.556640625,-1.89453125,0.0,0.0,0.0
670994928,536248,0,0.951171875,-0.564453125,-0.3046875,-0.869140625,0.0,0.0,0.0
670996179,536249,0,0.98046875,0.1796875,-0.083984375,0.095703125,0.0,0.0,0.0
670997431,536250,0,1.033203125,0.853515625,0.16796875,1.021484375,0.0,0.0,0.0
670998681,536251,0,1.005859375,1.421875,0.404296875,1.826171875,0.0,0.0,0.0
670999932,536252,0,1.087890625,1.84765625,0.5234375,2.37109375,0.0,0.0,0.0
671001182,536253,0,1.193359375,2.09765625,0.6484375,2.74609375,0.0,0.0,0.0
671002432,536254,0,1.078125,2.185546875,0.748046875,2.93359375,0.0,0.0,0.0
671003684,536255,0,1.02734375,2.1171875,0.7109375,2.828125,0.0,0.0,0.0
671004934,536256,0,1.107421875,1.900390625,0.689453125,2.58984375,0.0,0.0,0.0
671006185,536257,0,1.017578125,1.58984375,0.587890625,2.177734375,0.0,0.0,0.0
671007436,536258,0,0.98828125,1.19140625,0.404296875,1.595703125,0.0,0.0,0.0
671008687,536259,0,1.078125,0.728515625,0.087890625,0.81640625,0.0,0.0,0.0
671009937,536260,0,1.076171875,-0.203125,-0.08203125,-0.28515625,0.0,0.0,0.0
671011187,536261,0,1.03515625,-0.6171875,-0.1875,-0.8046875,0.0,0.0,0.0
671012439,536262,0,0.9296875,-0.95703125,-0.291015625,-1.248046875,0.0,0.0,0.0
671013690,536263,0,0.9375,-1.19921875,-0.3515625,-1.55078125,0.0,0.0,0.0
671014940,536264,0,0.916015625,-1.3359375,-0.4140625,-1.75,0.0,0.0,0.0
671016192,536265,0,0.958984375,-1.376953125,-0.44140625,-1.818359375,0.0,0.0,0.0
671017443,536266,0,0.9921875,-1.302734375,-0.41796875,-1.720703125,0.0,0.0,0.0
671018694,536267,0,1.005859375,-1.1484375,-0.375,-1.5234375,0.0,0.0,0.0
671019944,536268,0,0.970703125,-0.92578125,-0.27734375,-1.203125,0.0,0.0,0.0
671021194,536269,0,0.939453125,-0.63671875,-0.21484375,-0.8515625,0.0,0.0,0.0
671022445,536270,0,0.974609375,-0.328125,-0.095703125,-0.423828125,0.0,0.0,0.0
671023697,536271,0,0.958984375,-0.021484375,-0.017578125,-0.0390625,0.0,0.0,0.0
671024947,536272,0,1.005859375,0.236328125,0.060546875,0.296875,0.0,0.0,0.0
671026199,536273,0,1.048828125,0.470703125,0.14453125,0.615234375,0.0,0.0,0.0
671027449,536274,0,1.0625,0.65625,0.2109375,0.8671875,0.0,0.0,0.0
671028701,536275,0,1.04296875,0.775390625,0.26171875,1.037109375,0.0,0.0,0.0
671029951,536276,0,1.013671875,0.830078125,0.30859375,1.138671875,0.0,0.0,0.0
671031202,536277,0,1.00390625,0.822265625,0.306640625,1.12890625,0.0,0.0,0.0
671032454,536278,0,1.01953125,0.7578125,0.28515625,1.04296875,0.0,0.0,0.0
671033704,536279,0,1.03515625,0.63671875,0.2421875,0.87890625,0.0,0.0,0.0
671034955,536280,0,1.0390625,0.46875,0.17578125,0.64453125,0.0,0.0,0.0
671036206,536281,0,1.056640625,0.28515625,0.11328125,0.3984375,0.0,0.0,0.0
671037457,536282,0,1.0234375,0.09375,0.076171875,0.169921875,0.0,0.0,0.0
671038708,536283,0,0.970703125,-0.087890625,-0.009765625,-0.09765625,0.0,0.0,0.0
671039959,536284,0,0.94921875,-0.23046875,-0.06640625,-0.296875,0.0,0.0,0.0
671041211,536285,0,0.9765625,-0.380859375,-0.1015625,-0.482421875,0.0,0.0,0.0
671042463,536286,0,0.97265625,-0.48046875,-0.134765625,-0.615234375,0.0,0.0,0.0
671043713,536287,0,0.998046875,-0.544921875,-0.166015625,-0.7109375,0.0,0.0,0.0
671044965,536288,0,1.021484375,-0.556640625,-0.1640625,-0.720703125,0.0,0.0,0.0
671046215,536289,0,0.990234375,-0.525390625,-0.16015625,-0.685546875,0.0,0.0,0.0
671047466,536290,0,0.970703125,-0.46875,-0.130859375,-0.599609375,0.0,0.0,0.0
671048716,536291,0,0.978515625,-0.37890625,-0.099609375,-0.478515625,0.0,0.0,0.0
671049966,536292,0,0.98828125,-0.265625,-0.0703125,-0.3359375,0.0,0.0,0.0
671051216,536293,0,0.994140625,-0.15625,-0.037109375,-0.193359375,0.0,0.0,0.0
671052468,536294,0,1.005859375,-0.044921875,-0.001953125,-0.046875,0.0,0.0,0.0
671053719,536295,0,1.029296875,0.06640625,0.02734375,0.09375,0.0,0.0,0.0
671054969,536296,0,1.03125,0.1640625,0.068359375,0.232421875,0.0,0.0,0.0
671056221,536297,0,1.0078125,0.236328125,0.095703125,0.33203125,0.0,0.0,0.0
671057471,536298,0,0.99609375,0.28125,0.123046875,0.404296875,0.0,0.0,0.0
671058723,536299,0,1.01171875,0.314453125,0.123046875,0.4375,0.0,0.0,0.0
671059973,536300,0,1.017578125,0.296875,0.130859375,0.427734375,0.0,0.0,0.0
671061225,536301,0,1.01171875,0.265625,0.087890625,0.353515625,0.0,0.0,0.0
671062476,536302,0,1.03125,0.212890625,0.06640625,0.279296875,0.0,0.0,0.0
671063727,536303,0,1.029296875,0.080078125,0.046875,0.126953125,0.0,0.0,0.0
671064977,536304,0,1.0,0.001953125,0.025390625,0.02734375,0.0,0.0,0.0
671066228,536305,0,0.998046875,-0.0703125,0.001953125,-0.068359375,0.0,0.0,0.0
671067479,536306,0,0.990234375,-0.12890625,-0.025390625,-0.154296875,0.0,0.0,0.0
671068730,536307,0,1.001953125,-0.181640625,-0.04296875,-0.224609375,0.0,0.0,0.0
671069981,536308,0,1.009765625,-0.216796875,-0.056640625,-0.2734375,0.0,0.0,0.0
671071233,536309,0,1.005859375,-0.23828125,-0.064453125,-0.302734375,0.0,0.0,0.0
671072484,536310,0,0.998046875,-0.234375,-0.05859375,-0.29296875,0.0,0.0,0.0
671073734,536311,0,0.990234375,-0.21875,-0.05859375,-0.27734375,0.0,0.0,0.0
671074984,536312,0,0.984375,-0.19140625,-0.041015625,-0.232421875,0.0,0.0,0.0
671076235,536313,0,0.998046875,-0.15234375,-0.033203125,-0.185546875,0.0,0.0,0.0
671077486,536314,0,0.99609375,-0.10546875,-0.01171875,-0.1171875,0.0,0.0,0.0
671078737,536315,0,1.009765625,-0.056640625,-0.005859375,-0.0625,0.0,0.0,0.0
671079987,536316,0,1.021484375,-0.015625,0.015625,0.0,0.0,0.0,0.0
671081238,536317,0,1.009765625,0.0234375,0.03125,0.0546875,0.0,0.0,0.0
671082489,536318,0,1.001953125,0.0703125,0.04296875,0.11328125,0.0,0.0,0.0
671083740,536319,0,1.013671875,0.0859375,0.04296875,0.12890625,0.0,0.0,0.0
671084992,536320,0,1.0078125,0.10546875,0.0625,0.16796875,0.0,0.0,0.0
671086242,536321,0,1.009765625,0.111328125,0.0546875,0.166015625,0.0,0.0,0.0
671087493,536322,0,1.013671875,0.099609375,0.0546875,0.154296875,0.0,0.0,0.0
671088744,536323,0,1.021484375,0.09375,0.0546875,0.1484375,0.0,0.0,0.0
671089994,536324,0,1.015625,0.06640625,0.044921875,0.111328125,0.0,0.0,0.0
671091245,536325,0,1.001953125,0.037109375,0.03125,0.068359375,0.0,0.0,0.0
671092497,536326,0,0.99609375,0.005859375,0.02734375,0.033203125,0.0,0.0,0.0
671093749,536327,0,1.0,-0.021484375,0.021484375,0.0,0.0,0.0,0.0
671094999,536328,0,1.0,-0.05078125,0.001953125,-0.048828125,0.0,0.0,0.0
671096250,536329,0,1.005859375,-0.07421875,-0.00390625,-0.078125,0.0,0.0,0.0
671097500,536330,0,1.009765625,-0.091796875,-0.017578125,-0.109375,0.0,0.0,0.0
671098752,536331,0,1.0078125,-0.103515625,-0.01171875,-0.115234375,0.0,0.0,0.0
671100003,536332,0,0.994140625,-0.107421875,-0.013671875,-0.12109375,0.0,0.0,0.0
671101254,536333,0,0.994140625,-0.107421875,-0.013671875,-0.12109375,0.0,0.0,0.0
671102504,536334,0,0.994140625,-0.1015625,-0.01171875,-0.11328125,0.0,0.0,0.0
671103756,536335,0,0.99609375,-0.08984375,-0.0078125,-0.09765625,0.0,0.0,0.0
671105006,536336,0,1.013671875,-0.072265625,0.0,-0.072265625,0.0,0.0,0.0
671106257,536337,0,1.013671875,-0.060546875,0.001953125,-0.05859375,0.0,0.0,0.0
671107508,536338,0,1.001953125,-0.033203125,0.013671875,-0.01953125,0.0,0.0,0.0
671108759,536339,0,1.01171875,-0.017578125,0.015625,-0.001953125,0.0,0.0,0.0
671110009,536340,0,1.005859375,-0.00390625,0.021484375,0.017578125,0.0,0.0,0.0
671111259,536341,0,1.009765625,0.0,0.021484375,0.021484375,0.0,0.0,0.0
671112510,536342,0,1.0,0.017578125,0.03125,0.048828125,0.0,0.0,0.0
671113762,536343,0,1.0078125,0.013671875,0.033203125,0.046875,0.0,0.0,0.0
671115013,536344,0,1.0078125,0.015625,0.025390625,0.041015625,0.0,0.0,0.0
671116271,536345,0,1.0078125,0.00390625,0.025390625,0.029296875,0.0,0.0,0.0
671117522,536346,0,1.009765625,-0.005859375,0.021484375,0.015625,0.0,0.0,0.0
671118773,536347,0,1.0,-0.01953125,0.009765625,-0.009765625,0.0,0.0,0.0
671120025,536348,0,1.001953125,-0.025390625,0.0078125,-0.017578125,0.0,0.0,0.0
671121277,536349,0,1.001953125,-0.041015625,0.00390625,-0.037109375,0.0,0.0,0.0
671122528,536350,0,1.00390625,-0.05078125,0.005859375,-0.044921875,0.0,0.0,0.0
671123779,536351,0,1.00390625,-0.05859375,0.00390625,-0.0546875,0.0,0.0,0.0
671125031,536352,0,1.0,-0.072265625,-0.001953125,-0.07421875,0.0,0.0,0.0
671126283,536353,0,0.998046875,-0.072265625,0.0,-0.072265625,0.0,0.0,0.0
671127535,536354,0,0.998046875,-0.0703125,-0.005859375,-0.076171875,0.0,0.0,0.0
671128786,536355,0,0.99609375,-0.072265625,-0.00390625,-0.076171875,0.0,0.0,0.0
671130036,536356,0,0.998046875,-0.0625,-0.005859375,-0.068359375,0.0,0.0,0.0
671131287,536357,0,1.0078125,-0.0625,-0.00390625,-0.06640625,0.0,0.0,0.0
671132537,536358,0,1.00390625,-0.05078125,0.005859375,-0.044921875,0.0,0.0,0.0
671133787,536359,0,1.009765625,-0.0390625,0.009765625,-0.029296875,0.0,0.0,0.0
671135038,536360,0,1.009765625,-0.033203125,0.00390625,-0.029296875,0.0,0.0,0.0
671136289,536361,0,1.001953125,-0.025390625,0.013671875,-0.01171875,0.0,0.0,0.0
671137539,536362,0,1.009765625,-0.01953125,0.013671875,-0.005859375,0.0,0.0,0.0
671138790,536363,0,0.998046875,-0.015625,0.021484375,0.005859375,0.0,0.0,0.0
671140042,536364,0,1.0078125,-0.0078125,0.013671875,0.005859375,0.0,0.0,0.0
671141292,536365,0,0.998046875,-0.01171875,0.021484375,0.009765625,0.0,0.0,0.0
671142543,536366,0,1.0078125,-0.009765625,0.0234375,0.013671875,0.0,0.0,0.0
671143794,536367,0,1.001953125,-0.009765625,0.021484375,0.01171875,0.0,0.0,0.0
671145044,536368,0,1.0,-0.013671875,0.017578125,0.00390625,0.0,0.0,0.0
671146294,536369,0,0.99609375,-0.015625,0.015625,0.0,0.0,0.0,0.0
671147544,536370,0,1.00390625,-0.021484375,0.009765625,-0.01171875,0.0,0.0,0.0
671148796,536371,0,1.005859375,-0.02734375,0.0078125,-0.01953125,0.0,0.0,0.0
671150047,536372,0,0.998046875,-0.033203125,0.00390625,-0.029296875,0.0,0.0,0.0
671151297,536373,0,1.005859375,-0.03125,0.005859375,-0.025390625,0.0,0.0,0.0
671152548,536374,0,1.001953125,-0.044921875,0.0078125,-0.037109375,0.0,0.0,0.0
671153800,536375,0,0.998046875,-0.04296875,0.01171875,-0.03125,0.0,0.0,0.0
671155050,536376,0,1.0078125,-0.041015625,0.01171875,-0.029296875,0.0,0.0,0.0
671156300,536377,0,1.0078125,-0.041015625,0.00390625,-0.037109375,0.0,0.0,0.0
671157550,536378,0,1.001953125,-0.0390625,0.005859375,-0.033203125,0.0,0.0,0.0
671158801,536379,0,1.00390625,-0.03515625,0.005859375,-0.029296875,0.0,0.0,0.0
671160052,536380,0,1.0078125,-0.03515625,0.0078125,-0.02734375,0.0,0.0,0.0
671161302,536381,0,1.001953125,-0.033203125,0.013671875,-0.01953125,0.0,0.0,0.0
671162553,536382,0,1.00390625,-0.03125,0.01953125,-0.01171875,0.0,0.0,0.0
671163804,536383,0,1.009765625,-0.029296875,0.017578125,-0.01171875,0.0,0.0,0.0
671165054,536384,0,1.0,-0.01953125,0.017578125,-0.001953125,0.0,0.0,0.0
671166305,536385,0,1.0,-0.01953125,0.01953125,0.0,0.0,0.0,0.0
671167556,536386,0,1.00390625,-0.01953125,0.021484375,0.001953125,0.0,0.0,0.0
671168807,536387,0,0.998046875,-0.017578125,0.015625,-0.001953125,0.0,0.0,0.0
671170058,536388,0,1.005859375,-0.021484375,0.013671875,-0.0078125,0.0,0.0,0.0
671171310,536389,0,1.001953125,-0.021484375,0.017578125,-0.00390625,0.0,0.0,0.0
671172560,536390,0,1.005859375,-0.0234375,0.01171875,-0.01171875,0.0,0.0,0.0
671173810,536391,0,1.001953125,-0.025390625,0.0078125,-0.017578125,0.0,0.0,0.0
671175060,536392,0,1.005859375,-0.02734375,0.009765625,-0.017578125,0.0,0.0,0.0
671176311,536393,0,1.00390625,-0.033203125,0.013671875,-0.01953125,0.0,0.0,0.0
671177561,536394,0,1.00390625,-0.03515625,0.0078125,-0.02734375,0.0,0.0,0.0
671178813,536395,0,1.005859375,-0.0390625,0.005859375,-0.033203125,0.0,0.0,0.0
671180063,536396,0,0.998046875,-0.03515625,0.013671875,-0.021484375,0.0,0.0,0.0
671181313,536397,0,1.0078125,-0.041015625,0.013671875,-0.02734375,0.0,0.0,0.0
671182565,536398,0,1.0078125,-0.0390625,0.01171875,-0.02734375,0.0,0.0,0.0
671183816,536399,0,1.005859375,-0.0390625,0.0078125,-0.03125,0.0,0.0,0.0
671185066,536400,0,1.00390625,-0.037109375,0.009765625,-0.02734375,0.0,0.0,0.0
671186316,536401,0,1.001953125,-0.04296875,0.009765625,-0.033203125,0.0,0.0,0.0
671187567,536402,0,1.001953125,-0.037109375,0.01953125,-0.017578125,0.0,0.0,0.0
671188817,536403,0,1.005859375,-0.03515625,0.005859375,-0.029296875,0.0,0.0,0.0
671190069,536404,0,1.009765625,-0.0390625,0.005859375,-0.033203125,0.0,0.0,0.0
671191319,536405,0,0.998046875,-0.029296875,0.0078125,-0.021484375,0.0,0.0,0.0
671192570,536406,0,1.005859375,-0.03515625,0.009765625,-0.025390625,0.0,0.0,0.0
671193822,536407,0,1.00390625,-0.03515625,0.01171875,-0.0234375,0.0,0.0,0.0
671195072,536408,0,1.0,-0.03125,0.0078125,-0.0234375,0.0,0.0,0.0
671196322,536409,0,1.001953125,-0.02734375,0.01171875,-0.015625,0.0,0.0,0.0
671197572,536410,0,1.001953125,-0.033203125,0.009765625,-0.0234375,0.0,0.0,0.0
671198823,536411,0,1.005859375,-0.03125,0.01171875,-0.01953125,0.0,0.0,0.0
671200075,536412,0,1.00390625,-0.03125,0.0078125,-0.0234375,0.0,0.0,0.0
671201326,536413,0,1.005859375,-0.03125,-0.001953125,-0.033203125,0.0,0.0,0.0
671202576,536414,0,1.0078125,-0.03125,0.005859375,-0.025390625,0.0,0.0,0.0
671203827,536415,0,1.00390625,-0.03125,0.015625,-0.015625,0.0,0.0,0.0
671205077,536416,0,1.005859375,-0.033203125,0.009765625,-0.0234375,0.0,0.0,0.0
671206327,536417,0,1.00390625,-0.03125,0.01171875,-0.01953125,0.0,0.0,0.0
671207578,536418,0,1.005859375,-0.033203125,0.00390625,-0.029296875,0.0,0.0,0.0
671208829,536419,0,1.009765625,-0.03515625,0.005859375,-0.029296875,0.0,0.0,0.0
671210080,536420,0,1.001953125,-0.037109375,0.0,-0.037109375,0.0,0.0,0.0
671211332,536421,0,1.00390625,-0.03125,0.005859375,-0.025390625,0.0,0.0,0.0
671212582,536422,0,1.001953125,-0.03515625,0.005859375,-0.029296875,0.0,0.0,0.0
671213834,536423,0,1.00390625,-0.03125,0.015625,-0.015625,0.0,0.0,0.0
671215085,536424,0,0.998046875,-0.033203125,0.01171875,-0.021484375,0.0,0.0,0.0
671216335,536425,0,1.009765625,-0.03125,0.001953125,-0.029296875,0.0,0.0,0.0
671217586,536426,0,1.005859375,-0.03125,0.013671875,-0.017578125,0.0,0.0,0.0
671218838,536427,0,1.01953125,-0.03515625,0.01171875,-0.0234375,0.0,0.0,0.0
671220088,536428,0,1.001953125,-0.029296875,0.01171875,-0.017578125,0.0,0.0,0.0
671221338,536429,0,1.005859375,-0.02734375,0.013671875,-0.013671875,0.0,0.0,0.0
671222589,536430,0,1.01171875,-0.029296875,0.01171875,-0.017578125,0.0,0.0,0.0
671223839,536431,0,1.001953125,-0.029296875,0.01171875,-0.017578125,0.0,0.0,0.0
671225091,536432,0,1.005859375,-0.03125,0.009765625,-0.021484375,0.0,0.0,0.0
671226341,536433,0,1.00390625,-0.02734375,0.0078125,-0.01953125,0.0,0.0,0.0
671227592,536434,0,1.00390625,-0.029296875,0.009765625,-0.01953125,0.0,0.0,0.0
671228844,536435,0,1.005859375,-0.029296875,0.01171875,-0.017578125,0.0,0.0,0.0
671230094,536436,0,1.001953125,-0.02734375,0.013671875,-0.013671875,0.0,0.0,0.0
671231344,536437,0,1.005859375,-0.029296875,0.0078125,-0.021484375,0.0,0.0,0.0
671232595,536438,0,1.005859375,-0.029296875,0.00390625,-0.025390625,0.0,0.0,0.0
671233846,536439,0,1.0,-0.03125,0.01171875,-0.01953125,0.0,0.0,0.0
671235096,536440,0,0.998046875,-0.033203125,0.017578125,-0.015625,0.0,0.0,0.0
671236346,536441,0,1.00390625,-0.03125,0.009765625,-0.021484375,0.0,0.0,0.0
671237597,536442,0,1.005859375,-0.033203125,0.01171875,-0.021484375,0.0,0.0,0.0
671238847,536443,0,1.0078125,-0.033203125,0.01171875,-0.021484375,0.0,0.0,0.0
671240097,536444,0,1.005859375,-0.03515625,0.0078125,-0.02734375,0.0,0.0,0.0
671241349,536445,0,1.005859375,-0.033203125,0.0078125,-0.025390625,0.0,0.0,0.0
671242599,536446,0,1.00390625,-0.037109375,0.0078125,-0.029296875,0.0,0.0,0.0
671243850,536447,0,1.009765625,-0.033203125,0.013671875,-0.01953125,0.0,0.0,0.0
671245101,536448,0,1.0078125,-0.03515625,0.017578125,-0.017578125,0.0,0.0,0.0
671246351,536449,0,1.0,-0.037109375,0.01171875,-0.025390625,0.0,0.0,0.0
671247602,536450,0,1.0,-0.029296875,0.015625,-0.013671875,0.0,0.0,0.0
671248853,536451,0,0.99609375,-0.033203125,0.009765625,-0.0234375,0.0,0.0,0.0
671250103,536452,0,1.001953125,-0.03515625,0.005859375,-0.029296875,0.0,0.0,0.0
671251355,536453,0,1.00390625,-0.03515625,0.005859375,-0.029296875,0.0,0.0,0.0
671252606,536454,0,0.994140625,-0.03515625,0.01171875,-0.0234375,0.0,0.0,0.0
671253856,536455,0,1.005859375,-0.033203125,0.013671875,-0.01953125,0.0,0.0,0.0
671255108,536456,0,1.0078125,-0.037109375,0.01171875,-0.025390625,0.0,0.0,0.0
671256359,536457,0,1.0078125,-0.03515625,0.009765625,-0.025390625,0.0,0.0,0.0
671257610,536458,0,1.001953125,-0.037109375,0.009765625,-0.02734375,0.0,0.0,0.0
671258860,536459,0,1.00390625,-0.029296875,0.013671875,-0.015625,0.0,0.0,0.0
671260110,536460,0,0.998046875,-0.037109375,0.005859375,-0.03125,0.0,0.0,0.0
671261362,536461,0,1.005859375,-0.03515625,0.009765625,-0.025390625,0.0,0.0,0.0
671262614,536462,0,1.001953125,-0.033203125,0.015625,-0.017578125,0.0,0.0,0.0
671263865,536463,0,1.005859375,-0.037109375,0.01171875,-0.025390625,0.0,0.0,0.0
671265115,536464,0,1.005859375,-0.03515625,0.005859375,-0.029296875,0.0,0.0,0.0
671266366,536465,0,1.005859375,-0.037109375,0.0078125,-0.029296875,0.0,0.0,0.0
671267616,536466,0,1.0078125,-0.029296875,0.017578125,-0.01171875,0.0,0.0,0.0
671268867,536467,0,1.001953125,-0.0390625,0.001953125,-0.037109375,0.0,0.0,0.0
671270118,536468,0,1.001953125,-0.033203125,0.0,-0.033203125,0.0,0.0,0.0
671271368,536469,0,0.99609375,-0.037109375,0.001953125,-0.03515625,0.0,0.0,0.0
671272619,536470,0,1.009765625,-0.0390625,0.001953125,-0.037109375,0.0,0.0,0.0
671273871,536471,0,1.001953125,-0.03125,0.009765625,-0.021484375,0.0,0.0,0.0
671275121,536472,0,1.015625,-0.029296875,0.013671875,-0.015625,0.0,0.0,0.0
671276371,536473,0,1.001953125,-0.029296875,0.005859375,-0.0234375,0.0,0.0,0.0
671277623,536474,0,1.00390625,-0.029296875,0.00390625,-0.025390625,0.0,0.0,0.0
671278873,536475,0,1.005859375,-0.03125,0.01171875,-0.01953125,0.0,0.0,0.0
671280124,536476,0,1.00390625,-0.029296875,0.01171875,-0.017578125,0.0,0.0,0.0
671281376,536477,0,1.001953125,-0.03125,0.01171875,-0.01953125,0.0,0.0,0.0
671282626,536478,0,1.001953125,-0.02734375,0.005859375,-0.021484375,0.0,0.0,0.0
671283877,536479,0,1.00390625,-0.029296875,0.013671875,-0.015625,0.0,0.0,0.0
671285127,536480,0,1.001953125,-0.037109375,0.013671875,-0.0234375,0.0,0.0,0.0
671286377,536481,0,1.0078125,-0.02734375,0.015625,-0.01171875,0.0,0.0,0.0
671287629,536482,0,1.005859375,-0.03125,0.01953125,-0.01171875,0.0,0.0,0.0
671288879,536483,0,1.0078125,-0.029296875,0.017578125,-0.01171875,0.0,0.0,0.0
671290130,536484,0,1.005859375,-0.02734375,0.01171875,-0.015625,0.0,0.0,0.0
671291381,536485,0,1.00390625,-0.03125,0.01171875,-0.01953125,0.0,0.0,0.0
671292631,536486,0,1.009765625,-0.03125,0.013671875,-0.017578125,0.0,0.0,0.0
671293883,536487,0,1.015625,-0.029296875,0.01953125,-0.009765625,0.0,0.0,0.0
671295134,536488,0,1.00390625,-0.033203125,0.01171875,-0.021484375,0.0,0.0,0.0
671296384,536489,0,1.009765625,-0.0234375,0.021484375,-0.001953125,0.0,0.0,0.0
671297635,536490,0,1.005859375,-0.029296875,0.013671875,-0.015625,0.0,0.0,0.0
671298887,536491,0,1.005859375,-0.0234375,0.017578125,-0.005859375,0.0,0.0,0.0
671300137,536492,0,1.005859375,-0.029296875,0.015625,-0.013671875,0.0,0.0,0.0
671301388,536493,0,1.0,-0.029296875,0.01171875,-0.017578125,0.0,0.0,0.0
671302639,536494,0,1.005859375,-0.02734375,0.015625,-0.01171875,0.0,0.0,0.0
671303889,536495,0,1.0,-0.025390625,0.009765625,-0.015625,0.0,0.0,0.0
671305140,536496,0,1.0,-0.029296875,0.0078125,-0.021484375,0.0,0.0,0.0
671306392,536497,0,1.0078125,-0.03515625,0.009765625,-0.025390625,0.0,0.0,0.0
671307642,536498,0,1.01171875,-0.033203125,0.009765625,-0.0234375,0.0,0.0,0.0
671308894,536499,0,1.00390625,-0.03125,0.00390625,-0.02734375,0.0,0.0,0.0
671310145,536500,0,1.0,-0.03125,0.009765625,-0.021484375,0.0,0.0,0.0
671311396,536501,0,1.00390625,-0.03125,0.0078125,-0.0234375,0.0,0.0,0.0
671312647,536502,0,1.0,-0.029296875,0.0078125,-0.021484375,0.0,0.0,0.0
671313899,536503,0,0.998046875,-0.029296875,0.009765625,-0.01953125,0.0,0.0,0.0
671315150,536504,0,1.0078125,-0.03125,0.01171875,-0.01953125,0.0,0.0,0.0
671316400,536505,0,1.005859375,-0.03125,0.009765625,-0.021484375,0.0,0.0,0.0
671317652,536506,0,1.00390625,-0.03515625,0.0078125,-0.02734375,0.0,0.0,0.0
671318902,536507,0,1.005859375,-0.037109375,0.01953125,-0.017578125,0.0,0.0,0.0
671320152,536508,0,1.005859375,-0.03515625,0.013671875,-0.021484375,0.0,0.0,0.0
671321402,536509,0,1.01171875,-0.03515625,0.009765625,-0.025390625,0.0,0.0,0.0
671322653,536510,0,1.005859375,-0.041015625,0.013671875,-0.02734375,0.0,0.0,0.0
671323904,536511,0,1.0078125,-0.03515625,0.0078125,-0.02734375,0.0,0.0,0.0
671325154,536512,0,1.009765625,-0.03515625,0.0078125,-0.02734375,0.0,0.0,0.0
671326406,536513,0,1.0,-0.033203125,0.015625,-0.017578125,0.0,0.0,0.0
671327657,536514,0,1.001953125,-0.037109375,0.00390625,-0.033203125,0.0,0.0,0.0
671328907,536515,0,1.009765625,-0.033203125,0.01171875,-0.021484375,0.0,0.0,0.0
671330158,536516,0,1.00390625,-0.033203125,0.01171875,-0.021484375,0.0,0.0,0.0
671331408,536517,0,0.998046875,-0.037109375,0.001953125,-0.03515625,0.0,0.0,0.0
671332659,536518,0,1.001953125,-0.037109375,0.0078125,-0.029296875,0.0,0.0,0.0
671333910,536519,0,1.0,-0.033203125,0.00390625,-0.029296875,0.0,0.0,0.0
671335160,536520,0,1.00390625,-0.037109375,0.013671875,-0.0234375,0.0,0.0,0.0
671336410,536521,0,1.0078125,-0.033203125,0.005859375,-0.02734375,0.0,0.0,0.0
671337662,536522,0,1.005859375,-0.033203125,0.01171875,-0.021484375,0.0,0.0,0.0
671338912,536523,0,1.001953125,-0.03515625,0.017578125,-0.017578125,0.0,0.0,0.0
671340163,536524,0,1.001953125,-0.03125,0.013671875,-0.017578125,0.0,0.0,0.0
671341413,536525,0,1.005859375,-0.02734375,0.009765625,-0.017578125,0.0,0.0,0.0
671342664,536526,0,1.001953125,-0.03125,0.015625,-0.015625,0.0,0.0,0.0
671343915,536527,0,1.00390625,-0.033203125,0.009765625,-0.0234375,0.0,0.0,0.0
671345167,536528,0,1.00390625,-0.037109375,0.0078125,-0.029296875,0.0,0.0,0.0
671346417,536529,0,1.001953125,-0.037109375,0.005859375,-0.03125,0.0,0.0,0.0
671347668,536530,0,1.005859375,-0.033203125,0.009765625,-0.0234375,0.0,0.0,0.0
671348920,536531,0,1.009765625,-0.029296875,0.013671875,-0.015625,0.0,0.0,0.0
671350171,536532,0,0.998046875,-0.033203125,0.017578125,-0.015625,0.0,0.0,0.0
671351422,536533,0,0.998046875,-0.033203125,0.017578125,-0.015625,0.0,0.0,0.0
671352674,536534,0,1.005859375,-0.03125,0.01171875,-0.01953125,0.0,0.0,0.0
671353924,536535,0,1.005859375,-0.03125,0.013671875,-0.017578125,0.0,0.0,0.0
671355175,536536,0,1.013671875,-0.03515625,0.0078125,-0.02734375,0.0,0.0,0.0
671356426,536537,0,1.017578125,-0.02734375,0.005859375,-0.021484375,0.0,0.0,0.0
671357677,536538,0,0.998046875,-0.02734375,0.009765625,-0.017578125,0.0,0.0,0.0
671358928,536539,0,1.005859375,-0.033203125,0.015625,-0.017578125,0.0,0.0,0.0
671360179,536540,0,1.00390625,-0.037109375,0.0078125,-0.029296875,0.0,0.0,0.0
671361431,536541,0,1.0078125,-0.029296875,0.013671875,-0.015625,0.0,0.0,0.0
671362681,536542,0,1.005859375,-0.033203125,0.009765625,-0.0234375,0.0,0.0,0.0
671363932,536543,0,1.001953125,-0.029296875,0.01953125,-0.009765625,0.0,0.0,0.0
671365182,536544,0,1.001953125,-0.02734375,0.015625,-0.01171875,0.0,0.0,0.0
671366432,536545,0,1.001953125,-0.033203125,0.01171875,-0.021484375,0.0,0.0,0.0
671367684,536546,0,1.005859375,-0.03125,0.005859375,-0.025390625,0.0,0.0,0.0
671368934,536547,0,1.00390625,-0.03515625,0.015625,-0.01953125,0.0,0.0,0.0
671370185,536548,0,1.001953125,-0.029296875,0.01171875,-0.017578125,0.0,0.0,0.0
671371436,536549,0,1.00390625,-0.03515625,0.013671875,-0.021484375,0.0,0.0,0.0
671372687,536550,0,1.00390625,-0.033203125,0.013671875,-0.01953125,0.0,0.0,0.0
671373937,536551,0,1.001953125,-0.03125,0.015625,-0.015625,0.0,0.0,0.0
671375187,536552,0,1.009765625,-0.037109375,0.017578125,-0.01953125,0.0,0.0,0.0
671376439,536553,0,1.001953125,-0.029296875,0.01171875,-0.017578125,0.0,0.0,0.0
671377690,536554,0,1.0078125,-0.03125,0.01171875,-0.01953125,0.0,0.0,0.0
671378940,536555,0,0.994140625,-0.03125,0.01171875,-0.01953125,0.0,0.0,0.0
671380192,536556,0,1.001953125,-0.03125,0.005859375,-0.025390625,0.0,0.0,0.0
671381443,536557,0,1.0,-0.03125,0.0078125,-0.0234375,0.0,0.0,0.0
671382694,536558,0,1.00390625,-0.03515625,0.017578125,-0.017578125,0.0,0.0,0.0
671383944,536559,0,1.01171875,-0.029296875,0.017578125,-0.01171875,0.0,0.0,0.0
671385194,536560,0,1.001953125,-0.03125,0.015625,-0.015625,0.0,0.0,0.0
671386445,536561,0,1.00390625,-0.03515625,0.017578125,-0.017578125,0.0,0.0,0.0
671387697,536562,0,1.009765625,-0.037109375,0.009765625,-0.02734375,0.0,0.0,0.0
671388947,536563,0,1.001953125,-0.037109375,0.01171875,-0.025390625,0.0,0.0,0.0
671390199,536564,0,1.001953125,-0.033203125,0.01171875,-0.021484375,0.0,0.0,0.0
671391449,536565,0,1.001953125,-0.03125,0.005859375,-0.025390625,0.0,0.0,0.0
671392701,536566,0,1.00390625,-0.029296875,0.005859375,-0.0234375,0.0,0.0,0.0
671393951,536567,0,1.001953125,-0.033203125,0.015625,-0.017578125,0.0,0.0,0.0
671395202,536568,0,1.0,-0.02734375,0.0078125,-0.01953125,0.0,0.0,0.0
671396454,536569,0,1.005859375,-0.033203125,0.01171875,-0.021484375,0.0,0.0,0.0
671397704,536570,0,0.994140625,-0.03515625,0.005859375,-0.029296875,0.0,0.0,0.0
671398955,536571,0,1.0,-0.037109375,0.009765625,-0.02734375,0.0,0.0,0.0
671400206,536572,0,1.001953125,-0.037109375,0.00390625,-0.033203125,0.0,0.0,0.0
671401457,536573,0,1.005859375,-0.03125,0.015625,-0.015625,0.0,0.0,0.0
671402708,536574,0,1.005859375,-0.03515625,0.01171875,-0.0234375,0.0,0.0,0.0
671403959,536575,0,1.0078125,-0.03515625,0.01171875,-0.0234375,0.0,0.0,0.0
671405211,536576,0,1.005859375,-0.029296875,0.013671875,-0.015625,0.0,0.0,0.0
671406463,536577,0,1.0078125,-0.0390625,0.013671875,-0.025390625,0.0,0.0,0.0
671407713,536578,0,1.013671875,-0.03515625,0.009765625,-0.025390625,0.0,0.0,0.0
671408965,536579,0,1.005859375,-0.029296875,0.01171875,-0.017578125,0.0,0.0,0.0
671410215,536580,0,0.99609375,-0.037109375,0.00390625,-0.033203125,0.0,0.0,0.0
671411466,536581,0,0.994140625,-0.033203125,0.00390625,-0.029296875,0.0,0.0,0.0
671412716,536582,0,1.001953125,-0.033203125,0.015625,-0.017578125,0.0,0.0,0.0
671413966,536583,0,1.0078125,-0.033203125,0.0078125,-0.025390625,0.0,0.0,0.0
671415216,536584,0,1.0,-0.033203125,0.005859375,-0.02734375,0.0,0.0,0.0
671416468,536585,0,1.001953125,-0.02734375,0.009765625,-0.017578125,0.0,0.0,0.0
671417719,536586,0,1.009765625,-0.03125,0.013671875,-0.017578125,0.0,0.0,0.0
671418969,536587,0,1.009765625,-0.033203125,0.015625,-0.017578125,0.0,0.0,0.0
671420221,536588,0,0.99609375,-0.029296875,0.013671875,-0.015625,0.0,0.0,0.0
671421471,536589,0,1.001953125,-0.03125,0.009765625,-0.021484375,0.0,0.0,0.0
671422723,536590,0,1.0,-0.03125,0.0078125,-0.0234375,0.0,0.0,0.0
671423973,536591,0,1.00390625,-0.02734375,0.01171875,-0.015625,0.0,0.0,0.0
671425225,536592,0,1.005859375,-0.033203125,0.0078125,-0.025390625,0.0,0.0,0.0
671426476,536593,0,1.001953125,-0.029296875,0.01171875,-0.017578125,0.0,0.0,0.0
671427727,536594,0,1.001953125,-0.02734375,0.01171875,-0.015625,0.0,0.0,0.0
671428977,536595,0,1.00390625,-0.03125,0.013671875,-0.017578125,0.0,0.0,0.0
671430228,536596,0,1.0,-0.033203125,0.01171875,-0.021484375,0.0,0.0,0.0
671431479,536597,0,1.005859375,-0.025390625,0.009765625,-0.015625,0.0,0.0,0.0
671432730,536598,0,1.001953125,-0.03125,0.0078125,-0.0234375,0.0,0.0,0.0
671433981,536599,0,1.005859375,-0.03515625,0.015625,-0.01953125,0.0,0.0,0.0
671435233,536600,0,1.01953125,-0.0234375,0.013671875,-0.009765625,0.0,0.0,0.0
671436484,536601,0,1.01171875,-0.033203125,0.0078125,-0.025390625,0.0,0.0,0.0
671437734,536602,0,1.0078125,-0.03125,0.00390625,-0.02734375,0.0,0.0,0.0
671438984,536603,0,1.00390625,-0.03515625,0.015625,-0.01953125,0.0,0.0,0.0
671440235,536604,0,1.0,-0.03125,0.01171875,-0.01953125,0.0,0.0,0.0
671441486,536605,0,1.001953125,-0.03125,0.009765625,-0.021484375,0.0,0.0,0.0
671442737,536606,0,1.005859375,-0.03125,0.01171875,-0.01953125,0.0,0.0,0.0
671443987,536607,0,1.0078125,-0.03125,0.013671875,-0.017578125,0.0,0.0,0.0
671445238,536608,0,1.00390625,-0.03515625,0.005859375,-0.029296875,0.0,0.0,0.0
671446489,536609,0,1.00390625,-0.033203125,0.015625,-0.017578125,0.0,0.0,0.0
671447740,536610,0,1.00390625,-0.03125,0.0078125,-0.0234375,0.0,0.0,0.0
671448992,536611,0,1.009765625,-0.0390625,0.009765625,-0.029296875,0.0,0.0,0.0
671450242,536612,0,1.0,-0.033203125,0.009765625,-0.0234375,0.0,0.0,0.0
671451493,536613,0,1.001953125,-0.03125,0.005859375,-0.025390625,0.0,0.0,0.0
671452744,536614,0,1.005859375,-0.037109375,0.005859375,-0.03125,0.0,0.0,0.0
671453994,536615,0,1.0078125,-0.0390625,0.0078125,-0.03125,0.0,0.0,0.0
671455245,536616,0,1.0,-0.041015625,0.00390625,-0.037109375,0.0,0.0,0.0
671456497,536617,0,1.00390625,-0.029296875,0.01171875,-0.017578125,0.0,0.0,0.0
671457749,536618,0,1.001953125,-0.03515625,0.013671875,-0.021484375,0.0,0.0,0.0
671458999,536619,0,0.99609375,-0.03125,0.015625,-0.015625,0.0,0.0,0.0
671460250,536620,0,0.99609375,-0.03515625,0.01171875,-0.0234375,0.0,0.0,0.0
671461500,536621,0,1.00390625,-0.033203125,0.009765625,-0.0234375,0.0,0.0,0.0
671462752,536622,0,1.00390625,-0.037109375,0.005859375,-0.03125,0.0,0.0,0.0
671464003,536623,0,1.005859375,-0.03515625,0.013671875,-0.021484375,0.0,0.0,0.0
671465254,536624,0,1.0078125,-0.037109375,0.0078125,-0.029296875,0.0,0.0,0.0
671466504,536625,0,1.00390625,-0.037109375,0.0078125,-0.029296875,0.0,0.0,0.0
671467756,536626,0,1.0078125,-0.03515625,0.01171875,-0.0234375,0.0,0.0,0.0
671469006,536627,0,1.001953125,-0.033203125,0.009765625,-0.0234375,0.0,0.0,0.0
671470257,536628,0,1.0078125,-0.033203125,0.01171875,-0.021484375,0.0,0.0,0.0
671471508,536629,0,1.005859375,-0.033203125,0.009765625,-0.0234375,0.0,0.0,0.0
671472759,536630,0,1.00390625,-0.033203125,0.013671875,-0.01953125,0.0,0.0,0.0
671474009,536631,0,1.00390625,-0.03125,0.01171875,-0.01953125,0.0,0.0,0.0
671475259,536632,0,1.005859375,-0.033203125,0.009765625,-0.0234375,0.0,0.0,0.0
671476510,536633,0,1.005859375,-0.033203125,0.013671875,-0.01953125,0.0,0.0,0.0
671477762,536634,0,1.005859375,-0.03515625,0.01171875,-0.0234375,0.0,0.0,0.0
671479013,536635,0,1.001953125,-0.03515625,0.015625,-0.01953125,0.0,0.0,0.0
671480271,536636,0,1.001953125,-0.033203125,0.005859375,-0.02734375,0.0,0.0,0.0
671481522,536637,0,1.001953125,-0.033203125,0.013671875,-0.01953125,0.0,0.0,0.0
671482773,536638,0,0.998046875,-0.033203125,0.013671875,-0.01953125,0.0,0.0,0.0
671484025,536639,0,1.005859375,-0.037109375,0.009765625,-0.02734375,0.0,0.0,0.0
671485277,536640,0,1.005859375,-0.03125,0.005859375,-0.025390625,0.0,0.0,0.0
671486528,536641,0,1.0,-0.03515625,0.01953125,-0.015625,0.0,0.0,0.0
671487779,536642,0,0.998046875,-0.02734375,0.0078125,-0.01953125,0.0,0.0,0.0
671489031,536643,0,1.009765625,-0.033203125,0.015625,-0.017578125,0.0,0.0,0.0
671490283,536644,0,1.0,-0.02734375,0.009765625,-0.017578125,0.0,0.0,0.0
671491535,536645,0,1.001953125,-0.03125,0.013671875,-0.017578125,0.0,0.0,0.0
671492786,536646,0,1.0078125,-0.033203125,0.0078125,-0.025390625,0.0,0.0,0.0
671494036,536647,0,0.998046875,-0.029296875,0.009765625,-0.01953125,0.0,0.0,0.0
671495287,536648,0,1.0078125,-0.03125,0.01171875,-0.01953125,0.0,0.0,0.0
671496537,536649,0,1.00390625,-0.02734375,0.009765625,-0.017578125,0.0,0.0,0.0
671497787,536650,0,1.0078125,-0.025390625,0.005859375,-0.01953125,0.0,0.0,0.0
671499038,536651,0,1.005859375,-0.033203125,0.0,-0.033203125,0.0,0.0,0.0
671500289,536652,0,1.001953125,-0.037109375,0.013671875,-0.0234375,0.0,0.0,0.0
671501539,536653,0,1.0078125,-0.03125,0.005859375,-0.025390625,0.0,0.0,0.0
671502790,536654,0,1.005859375,-0.029296875,0.00390625,-0.025390625,0.0,0.0,0.0
671504042,536655,0,1.001953125,-0.033203125,0.01171875,-0.021484375,0.0,0.0,0.0
671505292,536656,0,1.00390625,-0.029296875,0.015625,-0.013671875,0.0,0.0,0.0
671506543,536657,0,0.998046875,-0.037109375,0.005859375,-0.03125,0.0,0.0,0.0
671507794,536658,0,1.005859375,-0.03515625,0.01171875,-0.0234375,0.0,0.0,0.0
671509044,536659,0,1.005859375,-0.03125,0.01171875,-0.01953125,0.0,0.0,0.0
671510294,536660,0,1.00390625,-0.03125,0.01171875,-0.01953125,0.0,0.0,0.0
671511544,536661,0,1.005859375,-0.037109375,0.015625,-0.021484375,0.0,0.0,0.0
671512796,536662,0,1.009765625,-0.03125,0.005859375,-0.025390625,0.0,0.0,0.0
671514047,536663,0,1.013671875,-0.02734375,0.015625,-0.01171875,0.0,0.0,0.0
671515297,536664,0,1.005859375,-0.03515625,0.01171875,-0.0234375,0.0,0.0,0.0
671516548,536665,0,1.0,-0.03515625,0.009765625,-0.025390625,0.0,0.0,0.0
671517800,536666,0,0.994140625,-0.03515625,0.0078125,-0.02734375,0.0,0.0,0.0
671519050,536667,0,1.001953125,-0.03515625,0.01171875,-0.0234375,0.0,0.0,0.0
671520300,536668,0,1.005859375,-0.03515625,0.015625,-0.01953125,0.0,0.0,0.0
671521550,536669,0,0.998046875,-0.03515625,0.015625,-0.01953125,0.0,0.0,0.0
671522801,536670,0,1.001953125,-0.037109375,0.015625,-0.021484375,0.0,0.0,0.0
671524052,536671,0,1.00390625,-0.037109375,0.005859375,-0.03125,0.0,0.0,0.0
671525302,536672,0,1.001953125,-0.033203125,0.01171875,-0.021484375,0.0,0.0,0.0
671526553,536673,0,1.001953125,-0.0390625,0.01171875,-0.02734375,0.0,0.0,0.0
671527804,536674,0,1.0078125,-0.033203125,0.01171875,-0.021484375,0.0,0.0,0.0
671529054,536675,0,1.0078125,-0.033203125,0.015625,-0.017578125,0.0,0.0,0.0
671530305,536676,0,1.00390625,-0.033203125,0.009765625,-0.0234375,0.0,0.0,0.0
671531556,536677,0,1.0,-0.033203125,0.015625,-0.017578125,0.0,0.0,0.0
671532807,536678,0,1.00390625,-0.033203125,0.005859375,-0.02734375,0.0,0.0,0.0
671534058,536679,0,0.998046875,-0.03515625,0.01171875,-0.0234375,0.0,0.0,0.0
671535310,536680,0,0.99609375,-0.03125,0.017578125,-0.013671875,0.0,0.0,0.0
671536560,536681,0,1.00390625,-0.03125,0.009765625,-0.021484375,0.0,0.0,0.0
671537810,536682,0,1.013671875,-0.041015625,0.0078125,-0.033203125,0.0,0.0,0.0
671539060,536683,0,1.0078125,-0.03515625,0.017578125,-0.017578125,0.0,0.0,0.0
671540311,536684,0,0.998046875,-0.033203125,0.015625,-0.017578125,0.0,0.0,0.0
671541561,536685,0,1.001953125,-0.03515625,0.017578125,-0.017578125,0.0,0.0,0.0
671542813,536686,0,1.009765625,-0.033203125,0.013671875,-0.01953125,0.0,0.0,0.0
671544063,536687,0,1.0078125,-0.033203125,0.015625,-0.017578125,0.0,0.0,0.0
671545313,536688,0,1.001953125,-0.03515625,0.01171875,-0.0234375,0.0,0.0,0.0
671546565,536689,0,1.00390625,-0.033203125,0.01171875,-0.021484375,0.0,0.0,0.0
671547816,536690,0,1.00390625,-0.029296875,0.009765625,-0.01953125,0.0,0.0,0.0
671549066,536691,0,1.01171875,-0.03125,0.0078125,-0.0234375,0.0,0.0,0.0
671550316,536692,0,0.998046875,-0.033203125,0.0078125,-0.025390625,0.0,0.0,0.0
671551567,536693,0,1.005859375,-0.03125,0.0078125,-0.0234375,0.0,0.0,0.0
671552817,536694,0,1.005859375,-0.033203125,0.005859375,-0.02734375,0.0,0.0,0.0
671554069,536695,0,1.001953125,-0.029296875,0.013671875,-0.015625,0.0,0.0,0.0
671555319,536696,0,1.005859375,-0.03125,0.0078125,-0.0234375,0.0,0.0,0.0
671556570,536697,0,1.00390625,-0.029296875,0.0078125,-0.021484375,0.0,0.0,0.0
671557822,536698,0,1.001953125,-0.03125,0.005859375,-0.025390625,0.0,0.0,0.0
671559072,536699,0,1.00390625,-0.02734375,0.0078125,-0.01953125,0.0,0.0,0.0
671560322,536700,0,1.00390625,-0.03125,0.001953125,-0.029296875,0.0,0.0,0.0
671561572,536701,0,1.0078125,-0.029296875,0.017578125,-0.01171875,0.0,0.0,0.0
671562823,536702,0,1.0078125,-0.02734375,0.001953125,-0.025390625,0.0,0.0,0.0
671564075,536703,0,1.001953125,-0.02734375,0.017578125,-0.009765625,0.0,0.0,0.0
671565326,536704,0,1.0,-0.033203125,0.009765625,-0.0234375,0.0,0.0,0.0
671566576,536705,0,1.001953125,-0.025390625,0.01171875,-0.013671875,0.0,0.0,0.0
671567827,536706,0,1.00390625,-0.029296875,0.001953125,-0.02734375,0.0,0.0,0.0
671569077,536707,0,0.994140625,-0.029296875,0.0078125,-0.021484375,0.0,0.0,0.0
671570327,536708,0,0.99609375,-0.033203125,0.013671875,-0.01953125,0.0,0.0,0.0
671571578,536709,0,1.013671875,-0.03515625,0.00390625,-0.03125,0.0,0.0,0.0
671572829,536710,0,1.001953125,-0.029296875,0.00390625,-0.025390625,0.0,0.0,0.0
671574080,536711,0,1.00390625,-0.03125,0.01171875,-0.01953125,0.0,0.0,0.0
671575332,536712,0,1.001953125,-0.03125,0.0078125,-0.0234375,0.0,0.0,0.0
671576582,536713,0,1.005859375,-0.03515625,0.0078125,-0.02734375,0.0,0.0,0.0
671577834,536714,0,1.0078125,-0.033203125,0.005859375,-0.02734375,0.0,0.0,0.0
671579085,536715,0,1.00390625,-0.03125,0.01171875,-0.01953125,0.0,0.0,0.0
671580335,536716,0,1.00390625,-0.037109375,0.009765625,-0.02734375,0.0,0.0,0.0
671581586,536717,0,1.001953125,-0.03515625,0.005859375,-0.029296875,0.0,0.0,0.0
671582838,536718,0,1.0,-0.033203125,0.005859375,-0.02734375,0.0,0.0,0.0
671584088,536719,0,1.005859375,-0.03125,0.01171875,-0.01953125,0.0,0.0,0.0
671585338,536720,0,1.0078125,-0.03515625,0.01171875,-0.0234375,0.0,0.0,0.0
671586589,536721,0,1.013671875,-0.03125,0.00390625,-0.02734375,0.0,0.0,0.0
671587839,536722,0,1.0078125,-0.037109375,0.01171875,-0.025390625,0.0,0.0,0.0
671589091,536723,0,1.00390625,-0.037109375,0.01171875,-0.025390625,0.0,0.0,0.0
671590341,536724,0,1.00390625,-0.029296875,0.009765625,-0.01953125,0.0,0.0,0.0
671591592,536725,0,1.005859375,-0.033203125,0.00390625,-0.029296875,0.0,0.0,0.0
671592844,536726,0,1.00390625,-0.033203125,0.0,-0.033203125,0.0,0.0,0.0
671594094,536727,0,1.0078125,-0.037109375,0.013671875,-0.0234375,0.0,0.0,0.0
671595344,536728,0,0.998046875,-0.03125,0.0078125,-0.0234375,0.0,0.0,0.0
671596595,536729,0,1.005859375,-0.03125,0.013671875,-0.017578125,0.0,0.0,0.0
671597846,536730,0,1.0078125,-0.033203125,0.015625,-0.017578125,0.0,0.0,0.0
671599096,536731,0,1.005859375,-0.033203125,0.01171875,-0.021484375,0.0,0.0,0.0
671600346,536732,0,0.998046875,-0.03515625,0.009765625,-0.025390625,0.0,0.0,0.0
671601597,536733,0,1.005859375,-0.03515625,0.0078125,-0.02734375,0.0,0.0,0.0
671602847,536734,0,1.001953125,-0.03515625,0.005859375,-0.029296875,0.0,0.0,0.0
671604097,536735,0,1.001953125,-0.033203125,0.009765625,-0.0234375,0.0,0.0,0.0
671605349,536736,0,1.0078125,-0.03125,0.009765625,-0.021484375,0.0,0.0,0.0
671606599,536737,0,1.001953125,-0.03515625,0.0078125,-0.02734375,0.0,0.0,0.0
671607850,536738,0,1.00390625,-0.03125,0.013671875,-0.017578125,0.0,0.0,0.0
671609101,536739,0,1.0078125,-0.033203125,0.013671875,-0.01953125,0.0,0.0,0.0
671610351,536740,0,1.0,-0.033203125,0.01171875,-0.021484375,0.0,0.0,0.0
671611602,536741,0,0.998046875,-0.033203125,0.013671875,-0.01953125,0.0,0.0,0.0
671612853,536742,0,1.005859375,-0.033203125,0.013671875,-0.01953125,0.0,0.0,0.0
671614103,536743,0,1.0078125,-0.02734375,0.01171875,-0.015625,0.0,0.0,0.0
671615355,536744,0,1.00390625,-0.033203125,0.005859375,-0.02734375,0.0,0.0,0.0
671616606,536745,0,1.009765625,-0.03515625,0.0078125,-0.02734375,0.0,0.0,0.0
671617856,536746,0,1.005859375,-0.033203125,0.009765625,-0.0234375,0.0,0.0,0.0
671619108,536747,0,1.01171875,-0.03515625,0.01171875,-0.0234375,0.0,0.0,0.0
671620359,536748,0,1.01171875,-0.02734375,0.0078125,-0.01953125,0.0,0.0,0.0
671621610,536749,0,1.01171875,-0.033203125,0.00390625,-0.029296875,0.0,0.0,0.0
671622860,536750,0,1.009765625,-0.03125,0.01171875,-0.01953125,0.0,0.0,0.0
671624110,536751,0,0.99609375,-0.029296875,0.015625,-0.013671875,0.0,0.0,0.0
671625362,536752,0,0.998046875,-0.02734375,0.00390625,-0.0234375,0.0,0.0,0.0
671626614,536753,0,1.0,-0.03125,0.009765625,-0.021484375,0.0,0.0,0.0
671627865,536754,0,0.998046875,-0.02734375,0.009765625,-0.017578125,0.0,0.0,0.0
671629115,536755,0,1.005859375,-0.03125,0.009765625,-0.021484375,0.0,0.0,0.0
671630366,536756,0,1.005859375,-0.03125,0.01171875,-0.01953125,0.0,0.0,0.0
671631616,536757,0,1.00390625,-0.02734375,0.01171875,-0.015625,0.0,0.0,0.0
671632867,536758,0,1.0078125,-0.03515625,0.013671875,-0.021484375,0.0,0.0,0.0
671634118,536759,0,0.998046875,-0.033203125,0.009765625,-0.0234375,0.0,0.0,0.0
671635368,536760,0,1.005859375,-0.03125,0.005859375,-0.025390625,0.0,0.0,0.0
671636619,536761,0,1.0078125,-0.033203125,0.013671875,-0.01953125,0.0,0.0,0.0
671637871,536762,0,1.001953125,-0.02734375,0.017578125,-0.009765625,0.0,0.0,0.0
671639121,536763,0,1.0,-0.029296875,0.009765625,-0.01953125,0.0,0.0,0.0
671640371,536764,0,1.0078125,-0.029296875,0.01171875,-0.017578125,0.0,0.0,0.0
671641623,536765,0,1.005859375,-0.033203125,0.015625,-0.017578125,0.0,0.0,0.0
671642873,536766,0,1.001953125,-0.0390625,0.001953125,-0.037109375,0.0,0.0,0.0
671644124,536767,0,1.0078125,-0.029296875,0.00390625,-0.025390625,0.0,0.0,0.0
671645376,536768,0,1.01953125,-0.037109375,0.001953125,-0.03515625,0.0,0.0,0.0
671646626,536769,0,1.001953125,-0.025390625,0.01171875,-0.013671875,0.0,0.0,0.0
671647877,536770,0,1.005859375,-0.033203125,0.009765625,-0.0234375,0.0,0.0,0.0
671649127,536771,0,0.998046875,-0.03125,0.015625,-0.015625,0.0,0.0,0.0
671650377,536772,0,1.005859375,-0.03515625,0.00390625,-0.03125,0.0,0.0,0.0
671651629,536773,0,1.00390625,-0.033203125,0.00390625,-0.029296875,0.0,0.0,0.0
671652879,536774,0,1.0078125,-0.037109375,0.017578125,-0.01953125,0.0,0.0,0.0
671654130,536775,0,1.001953125,-0.033203125,0.01171875,-0.021484375,0.0,0.0,0.0
671655381,536776,0,1.00390625,-0.03515625,0.013671875,-0.021484375,0.0,0.0,0.0
671656631,536777,0,1.00390625,-0.02734375,0.0078125,-0.01953125,0.0,0.0,0.0
671657883,536778,0,0.998046875,-0.03515625,0.015625,-0.01953125,0.0,0.0,0.0
671659134,536779,0,1.001953125,-0.033203125,0.01171875,-0.021484375,0.0,0.0,0.0
671660384,536780,0,1.005859375,-0.037109375,0.013671875,-0.0234375,0.0,0.0,0.0
671661635,536781,0,1.0,-0.037109375,0.015625,-0.021484375,0.0,0.0,0.0
671662887,536782,0,1.001953125,-0.03125,0.005859375,-0.025390625,0.0,0.0,0.0
671664137,536783,0,1.0078125,-0.03515625,0.009765625,-0.025390625,0.0,0.0,0.0
671665388,536784,0,1.005859375,-0.03515625,0.009765625,-0.025390625,0.0,0.0,0.0
671666639,536785,0,1.005859375,-0.03515625,0.0078125,-0.02734375,0.0,0.0,0.0
671667889,536786,0,1.001953125,-0.03515625,0.013671875,-0.021484375,0.0,0.0,0.0
671669140,536787,0,1.009765625,-0.03125,0.01171875,-0.01953125,0.0,0.0,0.0
671670392,536788,0,1.013671875,-0.029296875,0.0078125,-0.021484375,0.0,0.0,0.0
671671642,536789,0,1.0,-0.03515625,0.01171875,-0.0234375,0.0,0.0,0.0
671672894,536790,0,1.001953125,-0.033203125,0.01953125,-0.013671875,0.0,0.0,0.0
671674145,536791,0,1.001953125,-0.03515625,0.009765625,-0.025390625,0.0,0.0,0.0
671675396,536792,0,1.005859375,-0.037109375,0.005859375,-0.03125,0.0,0.0,0.0
671676647,536793,0,1.01953125,-0.029296875,0.009765625,-0.01953125,0.0,0.0,0.0
671677899,536794,0,1.001953125,-0.03125,0.009765625,-0.021484375,0.0,0.0,0.0
671679150,536795,0,1.00390625,-0.037109375,0.009765625,-0.02734375,0.0,0.0,0.0
671680400,536796,0,1.0078125,-0.029296875,0.01171875,-0.017578125,0.0,0.0,0.0
671681652,536797,0,1.001953125,-0.033203125,0.0078125,-0.025390625,0.0,0.0,0.0
671682902,536798,0,1.001953125,-0.029296875,0.005859375,-0.0234375,0.0,0.0,0.0
671684152,536799,0,1.00390625,-0.02734375,0.015625,-0.01171875,0.0,0.0,0.0
671685402,536800,0,1.0078125,-0.033203125,0.01953125,-0.013671875,0.0,0.0,0.0
671686653,536801,0,1.001953125,-0.03125,0.013671875,-0.017578125,0.0,0.0,0.0
671687904,536802,0,1.001953125,-0.033203125,0.009765625,-0.0234375,0.0,0.0,0.0
671689154,536803,0,1.005859375,-0.03515625,0.01171875,-0.0234375,0.0,0.0,0.0
671690406,536804,0,1.0,-0.03125,0.015625,-0.015625,0.0,0.0,0.0
671691657,536805,0,1.00390625,-0.03515625,0.013671875,-0.021484375,0.0,0.0,0.0
671692907,536806,0,1.005859375,-0.029296875,0.0078125,-0.021484375,0.0,0.0,0.0
671694158,536807,0,1.001953125,-0.029296875,0.009765625,-0.01953125,0.0,0.0,0.0
671695408,536808,0,1.0,-0.025390625,0.001953125,-0.0234375,0.0,0.0,0.0
671696659,536809,0,1.005859375,-0.029296875,0.01171875,-0.017578125,0.0,0.0,0.0
671697910,536810,0,1.013671875,-0.02734375,-0.04296875,-0.0703125,0.0,0.0,0.0
671699160,536811,0,1.013671875,-0.02734375,0.009765625,-0.017578125,0.0,0.0,0.0
671700410,536812,0,1.009765625,-0.03125,0.009765625,-0.021484375,0.0,0.0,0.0
671701662,536813,0,1.0,-0.03125,0.005859375,-0.025390625,0.0,0.0,0.0
671702912,536814,0,1.005859375,-0.025390625,0.009765625,-0.015625,0.0,0.0,0.0
671704163,536815,0,0.99609375,-0.037109375,0.009765625,-0.02734375,0.0,0.0,0.0
671705413,536816,0,1.00390625,-0.033203125,0.009765625,-0.0234375,0.0,0.0,0.0
671706664,536817,0,1.001953125,-0.033203125,0.009765625,-0.0234375,0.0,0.0,0.0
671707915,536818,0,1.005859375,-0.03125,0.01171875,-0.01953125,0.0,0.0,0.0
671709167,536819,0,1.0078125,-0.029296875,0.0078125,-0.021484375,0.0,0.0,0.0
671710417,536820,0,1.005859375,-0.02734375,0.01171875,-0.015625,0.0,0.0,0.0
671711668,536821,0,1.001953125,-0.03125,0.01171875,-0.01953125,0.0,0.0,0.0
671712920,536822,0,1.0078125,-0.03125,0.01171875,-0.01953125,0.0,0.0,0.0
671714171,536823,0,1.001953125,-0.033203125,0.013671875,-0.01953125,0.0,0.0,0.0
671715422,536824,0,1.013671875,-0.03515625,0.015625,-0.01953125,0.0,0.0,0.0
671716674,536825,0,1.005859375,-0.03125,0.009765625,-0.021484375,0.0,0.0,0.0
671717924,536826,0,1.009765625,-0.02734375,0.005859375,-0.021484375,0.0,0.0,0.0
671719175,536827,0,1.001953125,-0.033203125,0.01171875,-0.021484375,0.0,0.0,0.0
671720426,536828,0,1.005859375,-0.03515625,0.0078125,-0.02734375,0.0,0.0,0.0
671721677,536829,0,1.00390625,-0.037109375,0.009765625,-0.02734375,0.0,0.0,0.0
671722928,536830,0,1.00390625,-0.033203125,0.0078125,-0.025390625,0.0,0.0,0.0
671724179,536831,0,1.005859375,-0.033203125,0.01171875,-0.021484375,0.0,0.0,0.0
671725431,536832,0,0.99609375,-0.037109375,0.01171875,-0.025390625,0.0,0.0,0.0
671726681,536833,0,1.013671875,-0.03515625,0.00390625,-0.03125,0.0,0.0,0.0
671727932,536834,0,0.99609375,-0.037109375,0.009765625,-0.02734375,0.0,0.0,0.0
671729182,536835,0,1.00390625,-0.033203125,0.0078125,-0.025390625,0.0,0.0,0.0
671730432,536836,0,1.00390625,-0.033203125,0.009765625,-0.0234375,0.0,0.0,0.0
671731684,536837,0,1.00390625,-0.029296875,0.013671875,-0.015625,0.0,0.0,0.0
671732934,536838,0,1.015625,-0.03125,0.0078125,-0.0234375,0.0,0.0,0.0
671734185,536839,0,1.009765625,-0.03515625,0.0078125,-0.02734375,0.0,0.0,0.0
671735436,536840,0,1.001953125,-0.037109375,0.01171875,-0.025390625,0.0,0.0,0.0
671736687,536841,0,1.001953125,-0.03125,0.01171875,-0.01953125,0.0,0.0,0.0
671737937,536842,0,1.0078125,-0.03515625,0.013671875,-0.021484375,0.0,0.0,0.0
671739187,536843,0,1.0,-0.03515625,0.013671875,-0.021484375,0.0,0.0,0.0
671740439,536844,0,1.0078125,-0.03125,0.0078125,-0.0234375,0.0,0.0,0.0
671741690,536845,0,1.00390625,-0.033203125,0.001953125,-0.03125,0.0,0.0,0.0
671742940,536846,0,1.001953125,-0.03515625,0.0078125,-0.02734375,0.0,0.0,0.0
671744192,536847,0,1.001953125,-0.033203125,0.01953125,-0.013671875,0.0,0.0,0.0
671745443,536848,0,1.00390625,-0.03515625,0.009765625,-0.025390625,0.0,0.0,0.0
671746694,536849,0,1.009765625,-0.03515625,0.01171875,-0.0234375,0.0,0.0,0.0
671747944,536850,0,1.001953125,-0.03515625,0.01171875,-0.0234375,0.0,0.0,0.0
671749194,536851,0,1.0078125,-0.03125,0.009765625,-0.021484375,0.0,0.0,0.0
671750445,536852,0,1.00390625,-0.037109375,0.00390625,-0.033203125,0.0,0.0,0.0
671751697,536853,0,1.001953125,-0.02734375,0.009765625,-0.017578125,0.0,0.0,0.0
671752947,536854,0,0.998046875,-0.03515625,0.01953125,-0.015625,0.0,0.0,0.0
671754199,536855,0,0.99609375,-0.037109375,0.017578125,-0.01953125,0.0,0.0,0.0
671755449,536856,0,0.998046875,-0.025390625,0.015625,-0.009765625,0.0,0.0,0.0
671756701,536857,0,1.0078125,-0.029296875,0.01953125,-0.009765625,0.0,0.0,0.0
671757951,536858,0,1.005859375,-0.033203125,0.015625,-0.017578125,0.0,0.0,0.0
671759202,536859,0,1.0078125,-0.033203125,0.009765625,-0.0234375,0.0,0.0,0.0
671760454,536860,0,1.005859375,-0.029296875,0.01171875,-0.017578125,0.0,0.0,2.2895201290396017e-09
671762955,536862,0,1.00390625,-0.03125,0.01171875,-0.01953125,0.0,0.0,0.0
671764206,536863,0,1.005859375,-0.03515625,0.01171875,-0.0234375,0.0,0.0,0.0
671765457,536864,0,1.001953125,-0.033203125,0.0078125,-0.025390625,0.0,0.0,0.0
671766708,536865,0,1.005859375,-0.03125,0.013671875,-0.017578125,0.0,0.0,0.0
671767959,536866,0,1.01171875,-0.03125,0.013671875,-0.017578125,0.0,0.0,0.0
671769211,536867,0,1.001953125,-0.03125,0.017578125,-0.013671875,0.0,0.0,0.0
671770463,536868,0,1.001953125,-0.03515625,0.013671875,-0.021484375,0.0,0.0,0.0
671771713,536869,0,1.0,-0.03125,0.009765625,-0.021484375,0.0,0.0,0.0
671772965,536870,0,1.005859375,-0.03125,0.01171875,-0.01953125,0.0,0.0,0.0
671774215,536871,0,1.005859375,-0.03125,0.015625,-0.015625,0.0,0.0,0.0
671775466,536872,0,0.998046875,-0.029296875,0.013671875,-0.015625,0.0,0.0,0.0
671776716,536873,0,1.001953125,-0.029296875,0.015625,-0.013671875,0.0,0.0,0.0
671777966,536874,0,1.00390625,-0.03125,0.013671875,-0.017578125,0.0,0.0,0.0
671779216,536875,0,1.0,-0.03125,0.013671875,-0.017578125,0.0,0.0,0.0
671780468,536876,0,1.0078125,-0.033203125,0.005859375,-0.02734375,0.0,0.0,0.0
671781719,536877,0,1.013671875,-0.033203125,0.013671875,-0.01953125,0.0,0.0,0.0
671782969,536878,0,1.0,-0.03125,0.005859375,-0.025390625,0.0,0.0,0.0
671784221,536879,0,1.001953125,-0.029296875,0.005859375,-0.0234375,0.0,0.0,0.0
671785471,536880,0,1.0,-0.03125,0.009765625,-0.021484375,0.0,0.0,0.0
671786723,536881,0,1.001953125,-0.03515625,0.01171875,-0.0234375,0.0,0.0,0.0
671787973,536882,0,1.001953125,-0.037109375,0.013671875,-0.0234375,0.0,0.0,0.0
671789225,536883,0,1.009765625,-0.02734375,0.013671875,-0.013671875,0.0,0.0,0.0
671790476,536884,0,1.0078125,-0.029296875,0.0078125,-0.021484375,0.0,0.0,0.0
671791727,536885,0,1.0078125,-0.037109375,0.00390625,-0.033203125,0.0,0.0,0.0
671792977,536886,0,1.0,-0.029296875,0.0078125,-0.021484375,0.0,0.0,0.0
671794228,536887,0,1.00390625,-0.0390625,0.01171875,-0.02734375,0.0,0.0,0.0
671795479,536888,0,1.00390625,-0.03515625,0.01171875,-0.0234375,0.0,0.0,0.0
671796730,536889,0,1.0,-0.048828125,0.005859375,-0.04296875,0.0,0.0,0.0
671797981,536890,0,1.005859375,-0.048828125,0.0078125,-0.041015625,0.0,0.0,0.0
671799233,536891,0,1.005859375,-0.048828125,0.0,-0.048828125,0.0,0.0,0.0
671800484,536892,0,1.001953125,-0.0390625,0.009765625,-0.029296875,0.0,0.0,0.0
671801734,536893,0,1.009765625,-0.037109375,0.005859375,-0.03125,0.0,0.0,0.0
671802984,536894,0,1.005859375,-0.03125,0.017578125,-0.013671875,0.0,0.0,0.0
671804235,536895,0,0.998046875,-0.02734375,0.015625,-0.01171875,0.0,0.0,0.0
671805486,536896,0,0.99609375,-0.015625,0.017578125,0.001953125,0.0,0.0,0.0
671806737,536897,0,1.0078125,-0.021484375,0.025390625,0.00390625,0.0,0.0,0.0
671807987,536898,0,1.0078125,-0.0078125,0.0234375,0.015625,0.0,0.0,0.0
671809238,536899,0,1.001953125,-0.013671875,0.01953125,0.005859375,0.0,0.0,0.0
671810489,536900,0,1.005859375,-0.013671875,0.017578125,0.00390625,0.0,0.0,0.0
671811740,536901,0,1.005859375,-0.029296875,0.015625,-0.013671875,0.0,0.0,0.0
671812992,536902,0,1.005859375,-0.033203125,0.00390625,-0.029296875,0.0,0.0,0.0
671814242,536903,0,1.0,-0.033203125,0.01171875,-0.021484375,0.0,0.0,0.0
671815493,536904,0,1.005859375,-0.03125,0.01171875,-0.01953125,0.0,0.0,0.0
671816744,536905,0,1.001953125,-0.03515625,0.0078125,-0.02734375,0.0,0.0,0.0
671817994,536906,0,1.00390625,-0.03125,0.005859375,-0.025390625,0.0,0.0,0.0
671819245,536907,0,1.00390625,-0.037109375,0.01171875,-0.025390625,0.0,0.0,0.0
671820497,536908,0,1.00390625,-0.03125,0.01953125,-0.01171875,0.0,0.0,0.0
671821749,536909,0,1.0078125,-0.033203125,0.01171875,-0.021484375,0.0,0.0,0.0
671822999,536910,0,0.998046875,-0.03515625,0.0078125,-0.02734375,0.0,0.0,0.0
671824250,536911,0,1.0078125,-0.0390625,0.005859375,-0.033203125,0.0,0.0,0.0
671825500,536912,0,1.0,-0.0390625,0.01171875,-0.02734375,0.0,0.0,0.0
671826752,536913,0,1.00390625,-0.037109375,0.009765625,-0.02734375,0.0,0.0,0.0
671828003,536914,0,1.00390625,-0.0390625,0.005859375,-0.033203125,0.0,0.0,0.0
671829254,536915,0,1.00390625,-0.037109375,0.009765625,-0.02734375,0.0,0.0,0.0
671830504,536916,0,1.005859375,-0.0390625,0.01171875,-0.02734375,0.0,0.0,0.0
671831756,536917,0,1.005859375,-0.03125,0.009765625,-0.021484375,0.0,0.0,0.0
671833006,536918,0,1.00390625,-0.033203125,0.01171875,-0.021484375,0.0,0.0,0.0
671834257,536919,0,0.998046875,-0.033203125,0.013671875,-0.01953125,0.0,0.0,0.0
671835508,536920,0,1.00390625,-0.033203125,0.01171875,-0.021484375,0.0,0.0,0.0
671836759,536921,0,1.0078125,-0.029296875,0.015625,-0.013671875,0.0,0.0,0.0
671838009,536922,0,0.998046875,-0.029296875,0.01953125,-0.009765625,0.0,0.0,0.0
671839259,536923,0,0.998046875,-0.0234375,0.01171875,-0.01171875,0.0,0.0,0.0
671840510,536924,0,1.005859375,-0.029296875,0.00390625,-0.025390625,0.0,0.0,0.0
671841762,536925,0,0.998046875,-0.0234375,0.015625,-0.0078125,0.0,0.0,0.0
671843013,536926,0,1.0,-0.029296875,0.0078125,-0.021484375,0.0,0.0,0.0
671844271,536927,0,1.005859375,-0.033203125,0.013671875,-0.01953125,0.0,0.0,0.0
671845522,536928,0,0.998046875,-0.029296875,0.0078125,-0.021484375,0.0,0.0,0.0
671846773,536929,0,1.0078125,-0.033203125,0.013671875,-0.01953125,0.0,0.0,0.0
671848025,536930,0,1.0078125,-0.03515625,0.013671875,-0.021484375,0.0,0.0,0.0
671849277,536931,0,1.005859375,-0.037109375,0.009765625,-0.02734375,0.0,0.0,0.0
671850528,536932,0,1.00390625,-0.037109375,0.00390625,-0.033203125,0.0,0.0,0.0
671851779,536933,0,1.005859375,-0.037109375,0.009765625,-0.02734375,0.0,0.0,0.0
671853031,536934,0,1.00390625,-0.03515625,0.009765625,-0.025390625,0.0,0.0,0.0
671854283,536935,0,1.0078125,-0.03515625,0.013671875,-0.021484375,0.0,0.0,0.0
671855535,536936,0,1.009765625,-0.033203125,0.013671875,-0.01953125,0.0,0.0,0.0
671856786,536937,0,0.99609375,-0.03515625,0.01171875,-0.0234375,0.0,0.0,0.0
671858036,536938,0,1.005859375,-0.0390625,0.015625,-0.0234375,0.0,0.0,0.0
671859287,536939,0,1.0,-0.033203125,0.009765625,-0.0234375,0.0,0.0,0.0
671860537,536940,0,1.005859375,-0.029296875,0.015625,-0.013671875,0.0,0.0,0.0
671861787,536941,0,1.00390625,-0.03125,0.013671875,-0.017578125,0.0,0.0,0.0
671863038,536942,0,1.009765625,-0.029296875,0.00390625,-0.025390625,0.0,0.0,0.0
671864289,536943,0,1.001953125,-0.03515625,0.013671875,-0.021484375,0.0,0.0,0.0
671865539,536944,0,1.00390625,-0.03125,0.009765625,-0.021484375,0.0,0.0,0.0
671866790,536945,0,1.00390625,-0.029296875,0.01171875,-0.017578125,0.0,0.0,0.0
671868042,536946,0,1.00390625,-0.033203125,0.0078125,-0.025390625,0.0,0.0,0.0
671869292,536947,0,1.00390625,-0.033203125,0.01171875,-0.021484375,0.0,0.0,0.0
671870543,536948,0,1.0,-0.02734375,0.009765625,-0.017578125,0.0,0.0,0.0
671871794,536949,0,0.998046875,-0.03125,0.0078125,-0.0234375,0.0,0.0,0.0
671873044,536950,0,1.001953125,-0.02734375,0.00390625,-0.0234375,0.0,0.0,0.0
671874294,536951,0,1.0,-0.033203125,0.0078125,-0.025390625,0.0,0.0,0.0
671875544,536952,0,1.00390625,-0.03125,0.01171875,-0.01953125,0.0,0.0,0.0
671876796,536953,0,1.001953125,-0.03515625,0.005859375,-0.029296875,0.0,0.0,0.0
671878047,536954,0,1.005859375,-0.037109375,0.009765625,-0.02734375,0.0,0.0,0.0
671879297,536955,0,1.005859375,-0.03515625,0.009765625,-0.025390625,0.0,0.0,0.0
671880548,536956,0,1.0,-0.03515625,0.009765625,-0.025390625,0.0,0.0,0.0
671881800,536957,0,1.00390625,-0.037109375,0.0078125,-0.029296875,0.0,0.0,0.0
671883050,536958,0,1.001953125,-0.03515625,0.01171875,-0.0234375,0.0,0.0,0.0
671884300,536959,0,1.001953125,-0.03125,0.009765625,-0.021484375,0.0,0.0,0.0
671885550,536960,0,1.005859375,-0.025390625,0.015625,-0.009765625,0.0,0.0,0.0
671886801,536961,0,1.0,-0.029296875,0.005859375,-0.0234375,0.0,0.0,0.0
671888052,536962,0,1.015625,-0.029296875,0.009765625,-0.01953125,0.0,0.0,0.0
671889302,536963,0,1.013671875,-0.033203125,0.009765625,-0.0234375,0.0,0.0,0.0
671890553,536964,0,0.998046875,-0.02734375,0.009765625,-0.017578125,0.0,0.0,0.0
671891804,536965,0,0.998046875,-0.029296875,0.01171875,-0.017578125,0.0,0.0,0.0
671893054,536966,0,1.0078125,-0.025390625,0.01171875,-0.013671875,0.0,0.0,0.0
671894305,536967,0,1.009765625,-0.029296875,0.0078125,-0.021484375,0.0,0.0,0.0
671895556,536968,0,1.005859375,-0.033203125,0.01171875,-0.021484375,0.0,0.0,0.0
671896807,536969,0,1.01171875,-0.033203125,0.013671875,-0.01953125,0.0,0.0,0.0
671898058,536970,0,1.005859375,-0.03125,0.015625,-0.015625,0.0,0.0,0.0
671899310,536971,0,1.005859375,-0.033203125,0.009765625,-0.0234375,0.0,0.0,0.0
671900560,536972,0,1.001953125,-0.033203125,0.015625,-0.017578125,0.0,0.0,0.0
671901810,536973,0,0.998046875,-0.033203125,0.009765625,-0.0234375,0.0,0.0,0.0
671903060,536974,0,1.001953125,-0.03515625,0.017578125,-0.017578125,0.0,0.0,0.0
671904311,536975,0,1.001953125,-0.029296875,0.00390625,-0.025390625,0.0,0.0,0.0
671905561,536976,0,1.0078125,-0.03515625,0.01171875,-0.0234375,0.0,0.0,0.0
671906813,536977,0,1.001953125,-0.037109375,0.009765625,-0.02734375,0.0,0.0,0.0
671908063,536978,0,1.0,-0.03125,0.013671875,-0.017578125,0.0,0.0,0.0
671909313,536979,0,1.013671875,-0.03125,0.009765625,-0.021484375,0.0,0.0,0.0
671910565,536980,0,1.005859375,-0.03515625,0.00390625,-0.03125,0.0,0.0,0.0
671911816,536981,0,1.005859375,-0.03515625,0.009765625,-0.025390625,0.0,0.0,0.0
671913066,536982,0,1.0078125,-0.02734375,0.0,-0.02734375,0.0,0.0,0.0
671914316,536983,0,1.005859375,-0.029296875,0.01171875,-0.017578125,0.0,0.0,0.0
671915567,536984,0,1.001953125,-0.037109375,0.009765625,-0.02734375,0.0,0.0,0.0
671916817,536985,0,1.005859375,-0.03515625,0.017578125,-0.017578125,0.0,0.0,0.0
671918069,536986,0,1.001953125,-0.033203125,0.005859375,-0.02734375,0.0,0.0,0.0
671919319,536987,0,0.998046875,-0.03125,0.0078125,-0.0234375,0.0,0.0,0.0
671920570,536988,0,1.0,-0.03125,0.01171875,-0.01953125,0.0,0.0,0.0
671921822,536989,0,1.0078125,-0.03125,0.01171875,-0.01953125,0.0,0.0,0.0
671923072,536990,0,1.009765625,-0.03515625,0.005859375,-0.029296875,0.0,0.0,0.0
671924322,536991,0,0.998046875,-0.03125,0.009765625,-0.021484375,0.0,0.0,0.0
671925572,536992,0,1.005859375,-0.03125,0.013671875,-0.017578125,0.0,0.0,0.0
671926823,536993,0,1.00390625,-0.03515625,0.01171875,-0.0234375,0.0,0.0,0.0
671928075,536994,0,1.001953125,-0.029296875,0.01171875,-0.017578125,0.0,0.0,0.0
671929326,536995,0,0.998046875,-0.033203125,0.013671875,-0.01953125,0.0,0.0,0.0
671930576,536996,0,1.0078125,-0.033203125,0.001953125,-0.03125,0.0,0.0,0.0
671931827,536997,0,1.00390625,-0.029296875,0.009765625,-0.01953125,0.0,0.0,0.0
671933077,536998,0,1.00390625,-0.029296875,0.005859375,-0.0234375,0.0,0.0,0.0
671934327,536999,0,1.005859375,-0.037109375,0.0078125,-0.029296875,0.0,0.0,0.0
671935578,537000,0,1.001953125,-0.033203125,0.009765625,-0.0234375,0.0,0.0,0.0
671936829,537001,0,1.0,-0.033203125,0.017578125,-0.015625,0.0,0.0,0.0
671938080,537002,0,1.00390625,-0.0390625,0.00390625,-0.03515625,0.0,0.0,0.0
671939332,537003,0,1.005859375,-0.03125,0.017578125,-0.013671875,0.0,0.0,0.0
671940582,537004,0,0.99609375,-0.025390625,0.009765625,-0.015625,0.0,0.0,0.0
671941834,537005,0,1.001953125,-0.037109375,0.00390625,-0.033203125,0.0,0.0,0.0
671943085,537006,0,1.001953125,-0.033203125,0.01953125,-0.013671875,0.0,0.0,0.0
671944335,537007,0,1.015625,-0.033203125,0.01171875,-0.021484375,0.0,0.0,0.0
671945586,537008,0,1.01171875,-0.037109375,0.0078125,-0.029296875,0.0,0.0,0.0
671946838,537009,0,1.005859375,-0.03125,0.005859375,-0.025390625,0.0,0.0,0.0
671948088,537010,0,1.005859375,-0.033203125,0.01171875,-0.021484375,0.0,0.0,0.0
671949338,537011,0,1.005859375,-0.03515625,0.013671875,-0.021484375,0.0,0.0,0.0
671950589,537012,0,1.0078125,-0.03515625,0.013671875,-0.021484375,0.0,0.0,0.0
671951839,537013,0,1.0,-0.033203125,0.015625,-0.017578125,0.0,0.0,0.0
671953091,537014,0,1.0,-0.03515625,0.009765625,-0.025390625,0.0,0.0,0.0
671954341,537015,0,1.001953125,-0.029296875,0.01171875,-0.017578125,0.0,0.0,0.0
671955592,537016,0,1.001953125,-0.033203125,0.0078125,-0.025390625,0.0,0.0,0.0
671956844,537017,0,1.005859375,-0.03125,0.015625,-0.015625,0.0,0.0,0.0
671958094,537018,0,1.0078125,-0.029296875,0.009765625,-0.01953125,0.0,0.0,0.0
671959344,537019,0,1.005859375,-0.03125,0.013671875,-0.017578125,0.0,0.0,0.0
671960595,537020,0,1.0,-0.033203125,0.013671875,-0.01953125,0.0,0.0,0.0
671961846,537021,0,1.01171875,-0.029296875,0.021484375,-0.0078125,0.0,0.0,0.0
671963096,537022,0,1.001953125,-0.033203125,0.01171875,-0.021484375,0.0,0.0,0.0
671964346,537023,0,1.0,-0.03515625,0.01171875,-0.0234375,0.0,0.0,0.0
671965597,537024,0,1.013671875,-0.03125,0.005859375,-0.025390625,0.0,0.0,0.0
671966847,537025,0,1.001953125,-0.03125,0.00390625,-0.02734375,0.0,0.0,0.0
671968097,537026,0,0.998046875,-0.03125,0.013671875,-0.017578125,0.0,0.0,0.0
671969349,537027,0,1.0078125,-0.029296875,0.01953125,-0.009765625,0.0,0.0,0.0
671970599,537028,0,0.990234375,-0.03515625,0.015625,-0.01953125,0.0,0.0,0.0
671971850,537029,0,1.001953125,-0.03125,0.009765625,-0.021484375,0.0,0.0,0.0
671973101,537030,0,1.00390625,-0.033203125,0.009765625,-0.0234375,0.0,0.0,0.0
671974351,537031,0,1.0,-0.033203125,0.009765625,-0.0234375,0.0,0.0,0.0
671975602,537032,0,1.00390625,-0.03125,0.009765625,-0.021484375,0.0,0.0,0.0
671976853,537033,0,1.005859375,-0.037109375,0.005859375,-0.03125,0.0,0.0,0.0
671978103,537034,0,0.998046875,-0.033203125,0.013671875,-0.01953125,0.0,0.0,0.0
671979355,537035,0,1.0,-0.029296875,0.0078125,-0.021484375,0.0,0.0,0.0
671980606,537036,0,1.00390625,-0.03515625,0.009765625,-0.025390625,0.0,0.0,0.0
671981856,537037,0,1.001953125,-0.03125,0.00390625,-0.02734375,0.0,0.0,0.0
671983108,537038,0,1.001953125,-0.03125,0.013671875,-0.017578125,0.0,0.0,0.0
671984359,537039,0,1.005859375,-0.033203125,0.0078125,-0.025390625,0.0,0.0,0.0
671985610,537040,0,1.009765625,-0.029296875,0.005859375,-0.0234375,0.0,0.0,0.0
671986860,537041,0,1.0,-0.03125,0.01171875,-0.01953125,0.0,0.0,0.0
671988110,537042,0,1.0078125,-0.037109375,0.001953125,-0.03515625,0.0,0.0,0.0
671989362,537043,0,1.0078125,-0.033203125,0.01171875,-0.021484375,0.0,0.0,0.0
671990614,537044,0,1.00390625,-0.033203125,0.01171875,-0.021484375,0.0,0.0,0.0
671991865,537045,0,0.994140625,-0.03515625,0.00390625,-0.03125,0.0,0.0,0.0
671993115,537046,0,1.0,-0.033203125,0.009765625,-0.0234375,0.0,0.0,0.0
671994366,537047,0,1.013671875,-0.033203125,0.005859375,-0.02734375,0.0,0.0,0.0
671995616,537048,0,1.0078125,-0.0234375,0.0078125,-0.015625,0.0,0.0,0.0
671996867,537049,0,1.0,-0.03125,0.013671875,-0.017578125,0.0,0.0,0.0
671998118,537050,0,1.009765625,-0.0390625,0.0078125,-0.03125,0.0,0.0,0.0
671999368,537051,0,1.0078125,-0.033203125,0.009765625,-0.0234375,0.0,0.0,0.0
672000619,537052,0,1.001953125,-0.03515625,0.0078125,-0.02734375,0.0,0.0,0.0
672001871,537053,0,1.00390625,-0.0390625,0.01171875,-0.02734375,0.0,0.0,0.0
672003121,537054,0,1.005859375,-0.03125,0.013671875,-0.017578125,0.0,0.0,0.0
672004371,537055,0,0.998046875,-0.033203125,0.015625,-0.017578125,0.0,0.0,0.0
672005623,537056,0,1.00390625,-0.03125,0.005859375,-0.025390625,0.0,0.0,0.0
672006873,537057,0,1.005859375,-0.03125,0.009765625,-0.021484375,0.0,0.0,0.0
672008124,537058,0,1.005859375,-0.03125,0.01171875,-0.01953125,0.0,0.0,0.0
672009376,537059,0,1.005859375,-0.03125,0.01171875,-0.01953125,0.0,0.0,0.0
672010626,537060,0,1.01171875,-0.02734375,0.009765625,-0.017578125,0.0,0.0,0.0
672011877,537061,0,1.0,-0.033203125,0.009765625,-0.0234375,0.0,0.0,0.0
672013127,537062,0,1.001953125,-0.029296875,0.01171875,-0.017578125,0.0,0.0,0.0
672014377,537063,0,1.001953125,-0.037109375,0.00390625,-0.033203125,0.0,0.0,0.0
672015629,537064,0,1.005859375,-0.0390625,0.009765625,-0.029296875,0.0,0.0,0.0
672016879,537065,0,0.998046875,-0.03515625,0.001953125,-0.033203125,0.0,0.0,0.0
672018130,537066,0,0.99609375,-0.03515625,0.013671875,-0.021484375,0.0,0.0,0.0
672019381,537067,0,1.01953125,-0.037109375,0.005859375,-0.03125,0.0,0.0,0.0
672020631,537068,0,1.001953125,-0.04296875,0.001953125,-0.041015625,0.0,0.0,0.0
672021883,537069,0,0.998046875,-0.037109375,0.0078125,-0.029296875,0.0,0.0,0.0
672023134,537070,0,1.013671875,-0.03125,0.013671875,-0.017578125,0.0,0.0,0.0
672024384,537071,0,1.00390625,-0.03125,0.0078125,-0.0234375,0.0,0.0,0.0
672025635,537072,0,0.99609375,-0.03515625,0.015625,-0.01953125,0.0,0.0,0.0
672026887,537073,0,1.0078125,-0.033203125,0.009765625,-0.0234375,0.0,0.0,0.0
672028137,537074,0,1.001953125,-0.03515625,0.01171875,-0.0234375,0.0,0.0,0.0
672029388,537075,0,1.001953125,-0.033203125,0.0078125,-0.025390625,0.0,0.0,0.0
672030639,537076,0,1.00390625,-0.03515625,0.009765625,-0.025390625,0.0,0.0,0.0
672031889,537077,0,1.0078125,-0.03125,0.01171875,-0.01953125,0.0,0.0,0.0
672033140,537078,0,1.0,-0.03125,0.013671875,-0.017578125,0.0,0.0,0.0
672034392,537079,0,1.00390625,-0.02734375,0.005859375,-0.021484375,0.0,0.0,0.0
672035642,537080,0,1.009765625,-0.033203125,0.01171875,-0.021484375,0.0,0.0,0.0
672036894,537081,0,1.005859375,-0.03125,0.0078125,-0.0234375,0.0,0.0,0.0
672038145,537082,0,1.0078125,-0.029296875,0.01171875,-0.017578125,0.0,0.0,0.0
672039396,537083,0,1.0078125,-0.033203125,0.015625,-0.017578125,0.0,0.0,0.0
672040647,537084,0,0.99609375,-0.033203125,0.0078125,-0.025390625,0.0,0.0,0.0
672041899,537085,0,1.0078125,-0.0234375,0.013671875,-0.009765625,0.0,0.0,0.0
672043150,537086,0,1.013671875,-0.033203125,0.01171875,-0.021484375,0.0,0.0,0.0
672044400,537087,0,1.0078125,-0.03515625,0.0078125,-0.02734375,0.0,0.0,0.0
672045652,537088,0,1.009765625,-0.029296875,0.017578125,-0.01171875,0.0,0.0,0.0
672046902,537089,0,1.001953125,-0.033203125,0.009765625,-0.0234375,0.0,0.0,0.0
672048152,537090,0,1.0078125,-0.033203125,0.013671875,-0.01953125,0.0,0.0,0.0
672049402,537091,0,1.01171875,-0.029296875,0.0078125,-0.021484375,0.0,0.0,0.0
672050653,537092,0,0.99609375,-0.029296875,0.013671875,-0.015625,0.0,0.0,0.0
672051904,537093,0,1.001953125,-0.02734375,0.013671875,-0.013671875,0.0,0.0,0.0
672053154,537094,0,1.005859375,-0.025390625,0.009765625,-0.015625,0.0,0.0,0.0
672054406,537095,0,0.998046875,-0.03125,0.0078125,-0.0234375,0.0,0.0,0.0
672055657,537096,0,1.009765625,-0.03125,0.01171875,-0.01953125,0.0,0.0,0.0
672056907,537097,0,1.005859375,-0.029296875,0.013671875,-0.015625,0.0,0.0,0.0
672058158,537098,0,1.005859375,-0.029296875,0.009765625,-0.01953125,0.0,0.0,0.0
672059408,537099,0,1.0,-0.033203125,0.021484375,-0.01171875,0.0,0.0,0.0
672060659,537100,0,1.00390625,-0.033203125,0.013671875,-0.01953125,0.0,0.0,0.0
672061910,537101,0,1.005859375,-0.03125,0.015625,-0.015625,0.0,0.0,0.0
672063160,537102,0,1.0,-0.02734375,0.009765625,-0.017578125,0.0,0.0,0.0
672064410,537103,0,1.0078125,-0.033203125,0.01171875,-0.021484375,0.0,0.0,0.0
672065662,537104,0,1.009765625,-0.03125,0.009765625,-0.021484375,0.0,0.0,0.0
672066912,537105,0,1.01171875,-0.029296875,0.009765625,-0.01953125,0.0,0.0,0.0
672068163,537106,0,0.99609375,-0.033203125,0.01171875,-0.021484375,0.0,0.0,0.0
672069413,537107,0,1.001953125,-0.033203125,0.013671875,-0.01953125,0.0,0.0,0.0
672070664,537108,0,1.005859375,-0.033203125,0.017578125,-0.015625,0.0,0.0,0.0
672071915,537109,0,1.0,-0.037109375,0.015625,-0.021484375,0.0,0.0,0.0
672073167,537110,0,1.0,-0.0390625,0.005859375,-0.033203125,0.0,0.0,0.0
672074417,537111,0,1.009765625,-0.03515625,0.005859375,-0.029296875,0.0,0.0,0.0
672075668,537112,0,1.0078125,-0.041015625,0.0078125,-0.033203125,0.0,0.0,0.0
672076920,537113,0,1.013671875,-0.0390625,0.005859375,-0.033203125,0.0,0.0,0.0
672078171,537114,0,1.005859375,-0.02734375,0.009765625,-0.017578125,0.0,0.0,0.0
672079422,537115,0,1.00390625,-0.033203125,0.015625,-0.017578125,0.0,0.0,0.0
672080674,537116,0,1.005859375,-0.033203125,0.01171875,-0.021484375,0.0,0.0,0.0
672081924,537117,0,1.0078125,-0.029296875,0.013671875,-0.015625,0.0,0.0,0.0
672083175,537118,0,1.001953125,-0.029296875,0.01171875,-0.017578125,0.0,0.0,0.0
672084426,537119,0,1.0,-0.029296875,0.01171875,-0.017578125,0.0,0.0,0.0
672085677,537120,0,1.0,-0.03125,0.01953125,-0.01171875,0.0,0.0,0.0
672086928,537121,0,1.001953125,-0.033203125,0.01171875,-0.021484375,0.0,0.0,0.0
672088179,537122,0,1.00390625,-0.03125,0.009765625,-0.021484375,0.0,0.0,0.0
672089431,537123,0,1.0078125,-0.03125,0.0078125,-0.0234375,0.0,0.0,0.0
672090681,537124,0,0.99609375,-0.033203125,0.01171875,-0.021484375,0.0,0.0,0.0
672091932,537125,0,1.00390625,-0.037109375,0.015625,-0.021484375,0.0,0.0,0.0
672093182,537126,0,1.009765625,-0.03125,0.009765625,-0.021484375,0.0,0.0,0.0
672094432,537127,0,1.009765625,-0.03515625,0.013671875,-0.021484375,0.0,0.0,0.0
672095684,537128,0,1.005859375,-0.0390625,0.009765625,-0.029296875,0.0,0.0,0.0
672096934,537129,0,1.0078125,-0.029296875,0.0078125,-0.021484375,0.0,0.0,0.0
672098185,537130,0,1.005859375,-0.033203125,0.0078125,-0.025390625,0.0,0.0,0.0
672099436,537131,0,0.99609375,-0.0390625,0.017578125,-0.021484375,0.0,0.0,0.0
672100687,537132,0,1.0078125,-0.0390625,0.01171875,-0.02734375,0.0,0.0,0.0
672101937,537133,0,1.0078125,-0.0390625,0.01953125,-0.01953125,0.0,0.0,0.0
672103187,537134,0,1.005859375,-0.033203125,0.00390625,-0.029296875,0.0,0.0,0.0
672104439,537135,0,1.00390625,-0.033203125,0.013671875,-0.01953125,0.0,0.0,0.0
672105690,537136,0,1.015625,-0.037109375,0.00390625,-0.033203125,0.0,0.0,0.0
672106940,537137,0,1.001953125,-0.03515625,0.00390625,-0.03125,0.0,0.0,0.0
672108192,537138,0,1.001953125,-0.037109375,0.0078125,-0.029296875,0.0,0.0,0.0
672109443,537139,0,1.005859375,-0.041015625,0.00390625,-0.037109375,0.0,0.0,0.0
672110694,537140,0,0.998046875,-0.03125,0.009765625,-0.021484375,0.0,0.0,0.0
672111944,537141,0,1.00390625,-0.033203125,0.009765625,-0.0234375,0.0,0.0,0.0
672113194,537142,0,1.0078125,-0.033203125,0.0078125,-0.025390625,0.0,0.0,0.0
672114445,537143,0,1.001953125,-0.02734375,0.013671875,-0.013671875,0.0,0.0,0.0
672115697,537144,0,1.00390625,-0.025390625,0.013671875,-0.01171875,0.0,0.0,0.0
672116947,537145,0,1.009765625,-0.02734375,0.015625,-0.01171875,0.0,0.0,0.0
672118199,537146,0,1.005859375,-0.029296875,0.0078125,-0.021484375,0.0,0.0,0.0
672119449,537147,0,1.001953125,-0.02734375,0.009765625,-0.017578125,0.0,0.0,0.0
672120701,537148,0,1.005859375,-0.0234375,0.015625,-0.0078125,0.0,0.0,0.0
672121951,537149,0,1.009765625,-0.029296875,0.015625,-0.013671875,0.0,0.0,0.0
672123202,537150,0,1.0078125,-0.029296875,0.0078125,-0.021484375,0.0,0.0,0.0
672124454,537151,0,1.001953125,-0.03125,0.01171875,-0.01953125,0.0,0.0,0.0
672125704,537152,0,1.01953125,-0.02734375,0.009765625,-0.017578125,0.0,0.0,0.0
672126955,537153,0,1.0078125,-0.029296875,0.01953125,-0.009765625,0.0,0.0,0.0
672128206,537154,0,1.013671875,-0.029296875,0.0078125,-0.021484375,0.0,0.0,0.0
672129457,537155,0,1.001953125,-0.037109375,0.017578125,-0.01953125,0.0,0.0,0.0
672130708,537156,0,1.005859375,-0.0390625,0.015625,-0.0234375,0.0,0.0,0.0
672131959,537157,0,1.00390625,-0.037109375,0.009765625,-0.02734375,0.0,0.0,0.0
672133211,537158,0,1.005859375,-0.037109375,0.0078125,-0.029296875,0.0,0.0,0.0
672134463,537159,0,1.00390625,-0.03515625,0.013671875,-0.021484375,0.0,0.0,0.0
672135713,537160,0,1.00390625,-0.03125,0.015625,-0.015625,0.0,0.0,0.0
672136965,537161,0,1.001953125,-0.03515625,0.01171875,-0.0234375,0.0,0.0,0.0
672138215,537162,0,1.00390625,-0.033203125,0.0078125,-0.025390625,0.0,0.0,0.0
672139466,537163,0,1.001953125,-0.03515625,0.01171875,-0.0234375,0.0,0.0,0.0
672140716,537164,0,1.009765625,-0.03515625,0.01171875,-0.0234375,0.0,0.0,0.0
672141966,537165,0,1.005859375,-0.033203125,0.017578125,-0.015625,0.0,0.0,0.0
672143216,537166,0,1.005859375,-0.029296875,0.013671875,-0.015625,0.0,0.0,0.0
672144468,537167,0,0.99609375,-0.029296875,0.005859375,-0.0234375,0.0,0.0,0.0
672145719,537168,0,1.005859375,-0.033203125,0.01171875,-0.021484375,0.0,0.0,0.0
672146969,537169,0,1.001953125,-0.029296875,0.009765625,-0.01953125,0.0,0.0,0.0
672148221,537170,0,1.001953125,-0.037109375,0.01171875,-0.025390625,0.0,0.0,0.0
672149471,537171,0,1.009765625,-0.029296875,0.009765625,-0.01953125,0.0,0.0,0.0
672150723,537172,0,1.00390625,-0.03125,0.0078125,-0.0234375,0.0,0.0,0.0
672151973,537173,0,1.001953125,-0.029296875,0.013671875,-0.015625,0.0,0.0,0.0
672153225,537174,0,1.013671875,-0.025390625,0.0078125,-0.017578125,0.0,0.0,0.0
672154476,537175,0,0.998046875,-0.033203125,0.0078125,-0.025390625,0.0,0.0,0.0
672155727,537176,0,1.0,-0.033203125,0.0078125,-0.025390625,0.0,0.0,0.0
672156977,537177,0,1.0078125,-0.037109375,0.013671875,-0.0234375,0.0,0.0,0.0
672158228,537178,0,1.00390625,-0.03515625,0.013671875,-0.021484375,0.0,0.0,0.0
672159479,537179,0,1.017578125,-0.03515625,0.009765625,-0.025390625,0.0,0.0,0.0
672160730,537180,0,0.99609375,-0.03125,0.01171875,-0.01953125,0.0,0.0,0.0
672161981,537181,0,1.00390625,-0.03515625,0.0078125,-0.02734375,0.0,0.0,0.0
672163233,537182,0,1.005859375,-0.03515625,0.009765625,-0.025390625,0.0,0.0,0.0
672164484,537183,0,1.0078125,-0.029296875,0.00390625,-0.025390625,0.0,0.0,0.0
672165734,537184,0,1.005859375,-0.029296875,0.013671875,-0.015625,0.0,0.0,0.0
672166984,537185,0,1.0078125,-0.029296875,0.009765625,-0.01953125,0.0,0.0,0.0
672168235,537186,0,1.005859375,-0.03125,0.009765625,-0.021484375,0.0,0.0,0.0
672169486,537187,0,1.00390625,-0.029296875,0.015625,-0.013671875,0.0,0.0,0.0
672170737,537188,0,1.0078125,-0.033203125,0.015625,-0.017578125,0.0,0.0,0.0
672171987,537189,0,1.00390625,-0.033203125,0.013671875,-0.01953125,0.0,0.0,0.0
672173238,537190,0,1.001953125,-0.03515625,0.01171875,-0.0234375,0.0,0.0,0.0
672174489,537191,0,1.01171875,-0.0390625,0.01171875,-0.02734375,0.0,0.0,0.0
672175740,537192,0,1.0,-0.03515625,0.017578125,-0.017578125,0.0,0.0,0.0
672176992,537193,0,1.0,-0.03125,0.015625,-0.015625,0.0,0.0,0.0
672178242,537194,0,1.00390625,-0.029296875,0.009765625,-0.01953125,0.0,0.0,0.0
672179493,537195,0,1.001953125,-0.0390625,0.01953125,-0.01953125,0.0,0.0,0.0
672180744,537196,0,1.0078125,-0.03515625,0.0078125,-0.02734375,0.0,0.0,0.0
672181994,537197,0,1.001953125,-0.03125,0.017578125,-0.013671875,0.0,0.0,0.0
672183245,537198,0,1.01171875,-0.02734375,0.0078125,-0.01953125,0.0,0.0,0.0
672184497,537199,0,0.99609375,-0.02734375,0.015625,-0.01171875,0.0,0.0,0.0
672185749,537200,0,0.998046875,-0.02734375,0.01171875,-0.015625,0.0,0.0,0.0
672186999,537201,0,1.001953125,-0.029296875,0.0078125,-0.021484375,0.0,0.0,0.0
672188250,537202,0,1.0,-0.033203125,0.01953125,-0.013671875,0.0,0.0,0.0
672189500,537203,0,1.001953125,-0.03125,0.005859375,-0.025390625,0.0,0.0,0.0
672190752,537204,0,1.0,-0.03125,0.01171875,-0.01953125,0.0,0.0,0.0
672192003,537205,0,1.005859375,-0.03125,0.009765625,-0.021484375,0.0,0.0,0.0
672193254,537206,0,1.001953125,-0.029296875,0.01171875,-0.017578125,0.0,0.0,0.0
672194504,537207,0,1.005859375,-0.03125,0.01171875,-0.01953125,0.0,0.0,0.0
672195756,537208,0,1.001953125,-0.03125,0.013671875,-0.017578125,0.0,0.0,0.0
672197006,537209,0,1.001953125,-0.033203125,0.009765625,-0.0234375,0.0,0.0,0.0
672198257,537210,0,1.00390625,-0.033203125,0.013671875,-0.01953125,0.0,0.0,0.0
672199508,537211,0,1.00390625,-0.029296875,0.013671875,-0.015625,0.0,0.0,0.0
672200759,537212,0,1.00390625,-0.033203125,0.009765625,-0.0234375,0.0,0.0,0.0
672202009,537213,0,1.0,-0.033203125,0.01171875,-0.021484375,0.0,0.0,0.0
672203259,537214,0,1.00390625,-0.033203125,0.01171875,-0.021484375,0.0,0.0,0.0
672204510,537215,0,1.013671875,-0.033203125,0.001953125,-0.03125,0.0,0.0,0.0
672205762,537216,0,1.009765625,-0.03515625,0.009765625,-0.025390625,0.0,0.0,0.0
672207013,537217,0,1.013671875,-0.03515625,0.009765625,-0.025390625,0.0,0.0,0.0
672208271,537218,0,0.99609375,-0.03125,0.009765625,-0.021484375,0.0,0.0,0.0
672209522,537219,0,1.0078125,-0.033203125,0.00390625,-0.029296875,0.0,0.0,0.0
672210773,537220,0,0.998046875,-0.03125,0.01171875,-0.01953125,0.0,0.0,0.0
672212025,537221,0,1.00390625,-0.037109375,-0.001953125,-0.0390625,0.0,0.0,0.0
672213277,537222,0,1.01171875,-0.03515625,0.009765625,-0.025390625,0.0,0.0,0.0
672214528,537223,0,1.009765625,-0.03125,0.01171875,-0.01953125,0.0,0.0,0.0
672215779,537224,0,1.00390625,-0.029296875,0.009765625,-0.01953125,0.0,0.0,0.0
