t_us,frame_id,sensor_id,accX,accY,accZ,acc_sum_YZ,magX,magY,magZ
38776417,30821,0,1.00390625,-0.04296875,0.01953125,-0.0234375,0.0,0.0,23364622090240.0
38778918,30823,0,1.005859375,-0.03515625,0.015625,-0.01953125,0.0,0.0,0.0
38780168,30824,0,1.009765625,-0.037109375,0.005859375,-0.03125,0.0,0.0,0.0
38781418,30825,0,1.005859375,-0.03515625,0.017578125,-0.017578125,0.0,0.0,0.0
38782669,30826,0,1.009765625,-0.044921875,0.0078125,-0.037109375,0.0,0.0,0.0
38783921,30827,0,1.001953125,-0.0390625,0.009765625,-0.029296875,0.0,0.0,0.0
38785172,30828,0,0.994140625,-0.037109375,0.0078125,-0.029296875,0.0,0.0,0.0
38786422,30829,0,1.009765625,-0.0390625,0.009765625,-0.029296875,0.0,0.0,0.0
38787673,30830,0,1.005859375,-0.037109375,0.017578125,-0.01953125,0.0,0.0,0.0
38788925,30831,0,1.005859375,-0.041015625,0.015625,-0.025390625,0.0,0.0,0.0
38790175,30832,0,1.00390625,-0.0390625,0.005859375,-0.033203125,0.0,0.0,0.0
38791427,30833,0,1.00390625,-0.037109375,0.0234375,-0.013671875,0.0,0.0,0.0
38792678,30834,0,1.00390625,-0.0390625,0.01953125,-0.01953125,0.0,0.0,0.0
38793928,30835,0,1.0,-0.037109375,0.009765625,-0.02734375,0.0,0.0,0.0
38795179,30836,0,1.0078125,-0.037109375,0.017578125,-0.01953125,0.0,0.0,0.0
38796430,30837,0,1.00390625,-0.0390625,0.01953125,-0.01953125,0.0,0.0,0.0
38797681,30838,0,1.00390625,-0.0390625,0.013671875,-0.025390625,0.0,0.0,0.0
38798932,30839,0,1.001953125,-0.037109375,0.01171875,-0.025390625,0.0,0.0,0.0
38800182,30840,0,1.00390625,-0.037109375,0.0078125,-0.029296875,0.0,0.0,0.0
38801432,30841,0,1.0078125,-0.041015625,0.009765625,-0.03125,0.0,0.0,0.0
38802684,30842,0,1.0078125,-0.037109375,0.005859375,-0.03125,0.0,0.0,0.0
38803934,30843,0,1.013671875,-0.0390625,0.0078125,-0.03125,0.0,0.0,0.0
38805185,30844,0,1.005859375,-0.037109375,0.013671875,-0.0234375,0.0,0.0,0.0
38806436,30845,0,1.00390625,-0.0390625,0.017578125,-0.021484375,0.0,0.0,0.0
38807687,30846,0,1.0,-0.037109375,0.013671875,-0.0234375,0.0,0.0,0.0
38808937,30847,0,1.00390625,-0.04296875,0.0078125,-0.03515625,0.0,0.0,0.0
38810187,30848,0,0.998046875,-0.041015625,0.017578125,-0.0234375,0.0,0.0,0.0
38811439,30849,0,1.001953125,-0.041015625,0.01953125,-0.021484375,0.0,0.0,0.0
38812690,30850,0,1.00390625,-0.037109375,0.017578125,-0.01953125,0.0,0.0,0.0
38813940,30851,0,1.0078125,-0.0390625,0.015625,-0.0234375,0.0,0.0,0.0
38815192,30852,0,1.0,-0.03125,0.015625,-0.015625,0.0,0.0,0.0
38816443,30853,0,1.001953125,-0.03515625,0.021484375,-0.013671875,0.0,0.0,0.0
38817694,30854,0,1.00390625,-0.033203125,0.013671875,-0.01953125,0.0,0.0,0.0
38818944,30855,0,1.005859375,-0.0390625,0.015625,-0.0234375,0.0,0.0,0.0
38820194,30856,0,1.0078125,-0.029296875,0.017578125,-0.01171875,0.0,0.0,0.0
38821445,30857,0,1.0,-0.03515625,0.021484375,-0.013671875,0.0,0.0,0.0
38822697,30858,0,1.005859375,-0.029296875,0.015625,-0.013671875,0.0,0.0,0.0
38823947,30859,0,1.0078125,-0.029296875,0.0234375,-0.005859375,0.0,0.0,0.0
38825199,30860,0,0.99609375,-0.033203125,0.01953125,-0.013671875,0.0,0.0,0.0
38826449,30861,0,1.0,-0.037109375,0.01953125,-0.017578125,0.0,0.0,0.0
38827701,30862,0,1.00390625,-0.0390625,0.01171875,-0.02734375,0.0,0.0,0.0
38828951,30863,0,1.001953125,-0.037109375,0.015625,-0.021484375,0.0,0.0,0.0
38830202,30864,0,1.001953125,-0.0390625,0.015625,-0.0234375,0.0,0.0,0.0
38831454,30865,0,1.005859375,-0.03515625,0.015625,-0.01953125,0.0,0.0,0.0
38832704,30866,0,1.017578125,-0.04296875,0.013671875,-0.029296875,0.0,0.0,0.0
38833955,30867,0,1.005859375,-0.0390625,0.0078125,-0.03125,0.0,0.0,0.0
38835206,30868,0,1.00390625,-0.033203125,0.015625,-0.017578125,0.0,0.0,0.0
38836457,30869,0,1.00390625,-0.03515625,0.01953125,-0.015625,0.0,0.0,0.0
38837708,30870,0,1.0078125,-0.0390625,0.005859375,-0.033203125,0.0,0.0,0.0
38838959,30871,0,1.00390625,-0.044921875,0.013671875,-0.03125,0.0,0.0,0.0
38840211,30872,0,1.013671875,-0.037109375,0.017578125,-0.01953125,0.0,0.0,0.0
38841463,30873,0,1.001953125,-0.0390625,0.009765625,-0.029296875,0.0,0.0,0.0
38842713,30874,0,1.0078125,-0.037109375,0.015625,-0.021484375,0.0,0.0,0.0
38843965,30875,0,1.00390625,-0.03515625,0.021484375,-0.013671875,0.0,0.0,0.0
38845215,30876,0,1.00390625,-0.03515625,0.01953125,-0.015625,0.0,0.0,0.0
38846466,30877,0,1.005859375,-0.033203125,0.01953125,-0.013671875,0.0,0.0,0.0
38847716,30878,0,1.001953125,-0.033203125,0.01953125,-0.013671875,0.0,0.0,0.0
38848966,30879,0,1.0,-0.0390625,0.013671875,-0.025390625,0.0,0.0,0.0
38850216,30880,0,1.005859375,-0.03515625,0.015625,-0.01953125,0.0,0.0,0.0
38851468,30881,0,1.005859375,-0.037109375,0.013671875,-0.0234375,0.0,0.0,0.0
38852719,30882,0,1.0078125,-0.037109375,0.009765625,-0.02734375,0.0,0.0,0.0
38853969,30883,0,1.001953125,-0.037109375,0.013671875,-0.0234375,0.0,0.0,0.0
38855221,30884,0,1.005859375,-0.0390625,0.013671875,-0.025390625,0.0,0.0,0.0
38856471,30885,0,0.998046875,-0.037109375,0.013671875,-0.0234375,0.0,0.0,0.0
38857723,30886,0,1.0,-0.03515625,0.017578125,-0.017578125,0.0,0.0,0.0
38858973,30887,0,1.017578125,-0.044921875,0.013671875,-0.03125,0.0,0.0,0.0
38860225,30888,0,1.001953125,-0.0390625,0.017578125,-0.021484375,0.0,0.0,0.0
38861476,30889,0,0.99609375,-0.03515625,0.013671875,-0.021484375,0.0,0.0,0.0
38862727,30890,0,1.001953125,-0.03515625,0.0234375,-0.01171875,0.0,0.0,0.0
38863977,30891,0,1.0,-0.03515625,0.017578125,-0.017578125,0.0,0.0,0.0
38865228,30892,0,0.99609375,-0.037109375,0.01171875,-0.025390625,0.0,0.0,0.0
38866479,30893,0,1.00390625,-0.037109375,0.01171875,-0.025390625,0.0,0.0,0.0
38867730,30894,0,1.00390625,-0.037109375,0.0078125,-0.029296875,0.0,0.0,0.0
38868981,30895,0,1.00390625,-0.037109375,0.01953125,-0.017578125,0.0,0.0,0.0
38870233,30896,0,1.0078125,-0.03515625,0.017578125,-0.017578125,0.0,0.0,0.0
38871484,30897,0,1.005859375,-0.037109375,0.0078125,-0.029296875,0.0,0.0,0.0
38872734,30898,0,1.0078125,-0.03515625,0.01953125,-0.015625,0.0,0.0,0.0
38873984,30899,0,1.005859375,-0.03125,0.01953125,-0.01171875,0.0,0.0,0.0
38875235,30900,0,1.005859375,-0.02734375,0.01953125,-0.0078125,0.0,0.0,0.0
38876486,30901,0,1.00390625,-0.02734375,0.021484375,-0.005859375,0.0,0.0,0.0
38877737,30902,0,1.00390625,-0.02734375,0.01953125,-0.0078125,0.0,0.0,0.0
38878987,30903,0,1.0078125,-0.033203125,0.017578125,-0.015625,0.0,0.0,0.0
38880238,30904,0,1.00390625,-0.033203125,0.017578125,-0.015625,0.0,0.0,0.0
38881489,30905,0,1.005859375,-0.0390625,0.013671875,-0.025390625,0.0,0.0,0.0
38882740,30906,0,0.99609375,-0.0390625,0.01171875,-0.02734375,0.0,0.0,0.0
38883992,30907,0,1.001953125,-0.0390625,0.005859375,-0.033203125,0.0,0.0,0.0
38885242,30908,0,1.0078125,-0.037109375,0.021484375,-0.015625,0.0,0.0,0.0
38886493,30909,0,1.005859375,-0.037109375,0.01953125,-0.017578125,0.0,0.0,0.0
38887744,30910,0,0.998046875,-0.0390625,0.01171875,-0.02734375,0.0,0.0,0.0
38888994,30911,0,1.001953125,-0.041015625,0.01171875,-0.029296875,0.0,0.0,0.0
38890245,30912,0,1.0,-0.03125,0.017578125,-0.013671875,0.0,0.0,0.0
38891497,30913,0,0.998046875,-0.037109375,0.015625,-0.021484375,0.0,0.0,0.0
38892749,30914,0,1.00390625,-0.037109375,0.01171875,-0.025390625,0.0,0.0,0.0
38893999,30915,0,1.00390625,-0.03125,0.015625,-0.015625,0.0,0.0,0.0
38895250,30916,0,1.00390625,-0.037109375,0.015625,-0.021484375,0.0,0.0,0.0
38896500,30917,0,1.00390625,-0.03515625,0.021484375,-0.013671875,0.0,0.0,0.0
38897752,30918,0,1.00390625,-0.033203125,0.013671875,-0.01953125,0.0,0.0,0.0
38899003,30919,0,1.009765625,-0.03125,0.01953125,-0.01171875,0.0,0.0,0.0
38900254,30920,0,1.001953125,-0.02734375,0.015625,-0.01171875,0.0,0.0,0.0
38901504,30921,0,1.00390625,-0.03125,0.01171875,-0.01953125,0.0,0.0,0.0
38902756,30922,0,1.00390625,-0.037109375,0.015625,-0.021484375,0.0,0.0,0.0
38904006,30923,0,1.005859375,-0.037109375,0.013671875,-0.0234375,0.0,0.0,0.0
38905257,30924,0,1.00390625,-0.0390625,0.01171875,-0.02734375,0.0,0.0,0.0
38906508,30925,0,1.0,-0.0390625,0.017578125,-0.021484375,0.0,0.0,0.0
38907759,30926,0,1.005859375,-0.044921875,0.0078125,-0.037109375,0.0,0.0,0.0
38909009,30927,0,1.0078125,-0.044921875,0.013671875,-0.03125,0.0,0.0,0.0
38910259,30928,0,1.013671875,-0.0390625,0.01171875,-0.02734375,0.0,0.0,0.0
38911510,30929,0,0.99609375,-0.044921875,0.001953125,-0.04296875,0.0,0.0,0.0
38912762,30930,0,1.0,-0.037109375,0.0078125,-0.029296875,0.0,0.0,0.0
38914013,30931,0,1.0,-0.037109375,0.015625,-0.021484375,0.0,0.0,0.0
38915271,30932,0,0.994140625,-0.037109375,0.017578125,-0.01953125,0.0,0.0,0.0
38916522,30933,0,1.009765625,-0.037109375,0.015625,-0.021484375,0.0,0.0,0.0
38917773,30934,0,1.00390625,-0.033203125,0.013671875,-0.01953125,0.0,0.0,0.0
38919025,30935,0,0.99609375,-0.037109375,0.013671875,-0.0234375,0.0,0.0,0.0
38920277,30936,0,1.005859375,-0.041015625,0.0234375,-0.017578125,0.0,0.0,0.0
38921528,30937,0,1.0,-0.03515625,0.01953125,-0.015625,0.0,0.0,0.0
38922779,30938,0,1.0078125,-0.037109375,0.017578125,-0.01953125,0.0,0.0,0.0
38924031,30939,0,1.00390625,-0.03515625,0.0234375,-0.01171875,0.0,0.0,0.0
38925283,30940,0,0.99609375,-0.037109375,0.017578125,-0.01953125,0.0,0.0,0.0
38926535,30941,0,1.001953125,-0.037109375,0.015625,-0.021484375,0.0,0.0,0.0
38927786,30942,0,1.00390625,-0.0390625,0.01953125,-0.01953125,0.0,0.0,0.0
38929036,30943,0,1.001953125,-0.041015625,0.017578125,-0.0234375,0.0,0.0,0.0
38930287,30944,0,1.0078125,-0.044921875,0.01171875,-0.033203125,0.0,0.0,0.0
38931537,30945,0,1.005859375,-0.037109375,0.013671875,-0.0234375,0.0,0.0,0.0
38932787,30946,0,1.0078125,-0.037109375,0.017578125,-0.01953125,0.0,0.0,0.0
38934038,30947,0,1.00390625,-0.0390625,0.017578125,-0.021484375,0.0,0.0,0.0
38935289,30948,0,1.0078125,-0.041015625,0.01953125,-0.021484375,0.0,0.0,0.0
38936539,30949,0,1.0078125,-0.03515625,0.021484375,-0.013671875,0.0,0.0,0.0
38937790,30950,0,0.998046875,-0.03125,0.013671875,-0.017578125,0.0,0.0,0.0
38939042,30951,0,1.01171875,-0.0390625,0.0078125,-0.03125,0.0,0.0,0.0
38940292,30952,0,1.01171875,-0.03515625,0.017578125,-0.017578125,0.0,0.0,0.0
38941543,30953,0,1.005859375,-0.02734375,0.01953125,-0.0078125,0.0,0.0,0.0
38942794,30954,0,1.001953125,-0.03125,0.021484375,-0.009765625,0.0,0.0,0.0
38944044,30955,0,1.001953125,-0.033203125,0.017578125,-0.015625,0.0,0.0,0.0
38945294,30956,0,0.998046875,-0.033203125,0.01953125,-0.013671875,0.0,0.0,0.0
38946544,30957,0,1.0078125,-0.033203125,0.01953125,-0.013671875,0.0,0.0,0.0
38947796,30958,0,1.0,-0.0390625,0.017578125,-0.021484375,0.0,0.0,0.0
38949047,30959,0,1.00390625,-0.03515625,0.015625,-0.01953125,0.0,0.0,0.0
38950297,30960,0,1.005859375,-0.0390625,0.013671875,-0.025390625,0.0,0.0,0.0
38951548,30961,0,1.005859375,-0.037109375,0.0234375,-0.013671875,0.0,0.0,0.0
38952800,30962,0,1.0078125,-0.03515625,0.015625,-0.01953125,0.0,0.0,0.0
38954050,30963,0,1.00390625,-0.03515625,0.017578125,-0.017578125,0.0,0.0,0.0
38955300,30964,0,1.00390625,-0.0390625,0.015625,-0.0234375,0.0,0.0,0.0
38956550,30965,0,0.998046875,-0.03515625,0.017578125,-0.017578125,0.0,0.0,0.0
38957801,30966,0,1.005859375,-0.037109375,0.021484375,-0.015625,0.0,0.0,0.0
38959052,30967,0,1.001953125,-0.033203125,0.013671875,-0.01953125,0.0,0.0,0.0
38960302,30968,0,1.0,-0.0390625,0.015625,-0.0234375,0.0,0.0,0.0
38961553,30969,0,1.00390625,-0.03515625,0.009765625,-0.025390625,0.0,0.0,0.0
38962804,30970,0,1.00390625,-0.033203125,0.013671875,-0.01953125,0.0,0.0,0.0
38964054,30971,0,1.00390625,-0.0390625,0.01953125,-0.01953125,0.0,0.0,0.0
38965305,30972,0,1.001953125,-0.033203125,0.01953125,-0.013671875,0.0,0.0,0.0
38966556,30973,0,1.005859375,-0.037109375,0.0078125,-0.029296875,0.0,0.0,0.0
38967807,30974,0,1.001953125,-0.03125,0.015625,-0.015625,0.0,0.0,0.0
38969058,30975,0,1.00390625,-0.03515625,0.013671875,-0.021484375,0.0,0.0,0.0
38970310,30976,0,0.998046875,-0.03515625,0.0234375,-0.01171875,0.0,0.0,0.0
38971560,30977,0,1.001953125,-0.0390625,0.009765625,-0.029296875,0.0,0.0,0.0
38972810,30978,0,1.009765625,-0.037109375,0.01953125,-0.017578125,0.0,0.0,0.0
38974060,30979,0,1.005859375,-0.037109375,0.009765625,-0.02734375,0.0,0.0,0.0
38975311,30980,0,1.00390625,-0.03515625,0.01953125,-0.015625,0.0,0.0,0.0
38976561,30981,0,1.0078125,-0.03515625,0.015625,-0.01953125,0.0,0.0,0.0
38977813,30982,0,1.00390625,-0.0390625,0.01953125,-0.01953125,0.0,0.0,0.0
38979063,30983,0,1.001953125,-0.033203125,0.021484375,-0.01171875,0.0,0.0,0.0
38980313,30984,0,1.001953125,-0.033203125,0.017578125,-0.015625,0.0,0.0,0.0
38981565,30985,0,1.005859375,-0.0390625,0.017578125,-0.021484375,0.0,0.0,0.0
38982816,30986,0,1.005859375,-0.03515625,0.015625,-0.01953125,0.0,0.0,0.0
38984066,30987,0,1.005859375,-0.037109375,0.015625,-0.021484375,0.0,0.0,0.0
38985316,30988,0,1.001953125,-0.041015625,0.009765625,-0.03125,0.0,0.0,0.0
38986567,30989,0,1.0078125,-0.037109375,0.013671875,-0.0234375,0.0,0.0,0.0
38987817,30990,0,1.009765625,-0.0390625,0.01953125,-0.01953125,0.0,0.0,0.0
38989069,30991,0,1.0078125,-0.0390625,0.017578125,-0.021484375,0.0,0.0,0.0
38990319,30992,0,1.0078125,-0.033203125,0.01953125,-0.013671875,0.0,0.0,0.0
38991570,30993,0,1.009765625,-0.03515625,0.01953125,-0.015625,0.0,0.0,0.0
38992822,30994,0,1.017578125,-0.0390625,0.009765625,-0.029296875,0.0,0.0,0.0
38994072,30995,0,1.0,-0.0390625,0.01171875,-0.02734375,0.0,0.0,0.0
38995322,30996,0,1.0,-0.03515625,0.013671875,-0.021484375,0.0,0.0,0.0
38996572,30997,0,1.001953125,-0.044921875,0.017578125,-0.02734375,0.0,0.0,0.0
38997823,30998,0,1.005859375,-0.0390625,0.021484375,-0.017578125,0.0,0.0,0.0
38999075,30999,0,1.005859375,-0.0390625,0.013671875,-0.025390625,0.0,0.0,0.0
39000326,31000,0,1.0,-0.0390625,0.021484375,-0.017578125,0.0,0.0,0.0
39001576,31001,0,1.001953125,-0.037109375,0.01953125,-0.017578125,0.0,0.0,0.0
39002827,31002,0,1.001953125,-0.037109375,0.015625,-0.021484375,0.0,0.0,0.0
39004077,31003,0,1.001953125,-0.037109375,0.013671875,-0.0234375,0.0,0.0,0.0
39005327,31004,0,1.005859375,-0.0390625,0.013671875,-0.025390625,0.0,0.0,0.0
39006578,31005,0,1.001953125,-0.04296875,0.015625,-0.02734375,0.0,0.0,0.0
39007829,31006,0,1.00390625,-0.03515625,0.015625,-0.01953125,0.0,0.0,0.0
39009080,31007,0,1.005859375,-0.037109375,0.013671875,-0.0234375,0.0,0.0,0.0
39010332,31008,0,1.001953125,-0.03515625,0.017578125,-0.017578125,0.0,0.0,0.0
39011582,31009,0,0.998046875,-0.037109375,0.013671875,-0.0234375,0.0,0.0,0.0
39012834,31010,0,1.00390625,-0.0390625,0.015625,-0.0234375,0.0,0.0,0.0
39014085,31011,0,1.0078125,-0.041015625,0.017578125,-0.0234375,0.0,0.0,0.0
39015335,31012,0,1.0078125,-0.037109375,0.015625,-0.021484375,0.0,0.0,0.0
39016586,31013,0,1.00390625,-0.037109375,0.0078125,-0.029296875,0.0,0.0,0.0
39017838,31014,0,1.01171875,-0.041015625,0.01953125,-0.021484375,0.0,0.0,0.0
39019088,31015,0,1.001953125,-0.0390625,0.013671875,-0.025390625,0.0,0.0,0.0
39020338,31016,0,1.01171875,-0.03125,0.029296875,-0.001953125,0.0,0.0,0.0
39021589,31017,0,1.00390625,-0.0234375,0.015625,-0.0078125,0.0,0.0,0.0
39022839,31018,0,0.99609375,-0.02734375,0.017578125,-0.009765625,0.0,0.0,0.0
39024091,31019,0,1.001953125,-0.03515625,0.01171875,-0.0234375,0.0,0.0,0.0
39025341,31020,0,1.00390625,-0.046875,0.005859375,-0.041015625,0.0,0.0,0.0
39026592,31021,0,1.0,-0.041015625,0.015625,-0.025390625,0.0,0.0,0.0
39027844,31022,0,1.001953125,-0.0390625,0.015625,-0.0234375,0.0,0.0,0.0
39029094,31023,0,1.0,-0.029296875,0.015625,-0.013671875,0.0,0.0,0.0
39030344,31024,0,1.00390625,-0.037109375,0.017578125,-0.01953125,0.0,0.0,0.0
39031595,31025,0,1.01171875,-0.03515625,0.015625,-0.01953125,0.0,0.0,0.0
39032846,31026,0,1.009765625,-0.03125,0.021484375,-0.009765625,0.0,0.0,0.0
39034096,31027,0,1.0,-0.0390625,0.013671875,-0.025390625,0.0,0.0,0.0
39035346,31028,0,1.00390625,-0.03515625,0.01953125,-0.015625,0.0,0.0,0.0
39036597,31029,0,1.0,-0.03515625,0.013671875,-0.021484375,0.0,0.0,0.0
39037847,31030,0,1.00390625,-0.0390625,0.013671875,-0.025390625,0.0,0.0,0.0
39039097,31031,0,1.001953125,-0.03515625,0.01953125,-0.015625,0.0,0.0,0.0
39040349,31032,0,1.0078125,-0.0390625,0.013671875,-0.025390625,0.0,0.0,0.0
39041599,31033,0,1.001953125,-0.0390625,0.009765625,-0.029296875,0.0,0.0,0.0
39042850,31034,0,1.001953125,-0.037109375,0.009765625,-0.02734375,0.0,0.0,0.0
39044101,31035,0,0.99609375,-0.033203125,0.021484375,-0.01171875,0.0,0.0,0.0
39045351,31036,0,1.005859375,-0.033203125,0.01953125,-0.013671875,0.0,0.0,0.0
39046602,31037,0,1.005859375,-0.03515625,0.005859375,-0.029296875,0.0,0.0,0.0
39047853,31038,0,1.00390625,-0.03125,0.01953125,-0.01171875,0.0,0.0,0.0
39049103,31039,0,1.0078125,-0.029296875,0.01171875,-0.017578125,0.0,0.0,0.0
39050355,31040,0,1.00390625,-0.03515625,0.01953125,-0.015625,0.0,0.0,0.0
39051606,31041,0,1.013671875,-0.02734375,0.017578125,-0.009765625,0.0,0.0,0.0
39052856,31042,0,1.005859375,-0.02734375,0.01953125,-0.0078125,0.0,0.0,0.0
39054108,31043,0,1.00390625,-0.03515625,0.021484375,-0.013671875,0.0,0.0,0.0
39055359,31044,0,1.005859375,-0.033203125,0.01953125,-0.013671875,0.0,0.0,0.0
39056610,31045,0,1.00390625,-0.033203125,0.021484375,-0.01171875,0.0,0.0,0.0
39057860,31046,0,1.005859375,-0.03515625,0.01953125,-0.015625,0.0,0.0,0.0
39059110,31047,0,1.005859375,-0.0390625,0.013671875,-0.025390625,0.0,0.0,0.0
39060362,31048,0,1.00390625,-0.0390625,0.009765625,-0.029296875,0.0,0.0,0.0
39061614,31049,0,1.0078125,-0.0390625,0.013671875,-0.025390625,0.0,0.0,0.0
39062865,31050,0,0.998046875,-0.037109375,0.017578125,-0.01953125,0.0,0.0,0.0
39064115,31051,0,1.00390625,-0.037109375,0.017578125,-0.01953125,0.0,0.0,0.0
39065366,31052,0,1.00390625,-0.037109375,0.01171875,-0.025390625,0.0,0.0,0.0
39066616,31053,0,1.005859375,-0.0390625,0.013671875,-0.025390625,0.0,0.0,0.0
39067867,31054,0,1.0,-0.0390625,0.01171875,-0.02734375,0.0,0.0,0.0
39069118,31055,0,0.99609375,-0.0390625,0.01171875,-0.02734375,0.0,0.0,0.0
39070368,31056,0,0.998046875,-0.03515625,0.01953125,-0.015625,0.0,0.0,0.0
39071619,31057,0,1.005859375,-0.037109375,0.009765625,-0.02734375,0.0,0.0,0.0
39072871,31058,0,1.005859375,-0.04296875,0.005859375,-0.037109375,0.0,0.0,0.0
39074121,31059,0,1.0,-0.037109375,0.015625,-0.021484375,0.0,0.0,0.0
39075371,31060,0,1.01171875,-0.041015625,0.017578125,-0.0234375,0.0,0.0,0.0
39076623,31061,0,1.00390625,-0.03515625,0.013671875,-0.021484375,0.0,0.0,0.0
39077873,31062,0,1.001953125,-0.037109375,0.021484375,-0.015625,0.0,0.0,0.0
39079124,31063,0,1.00390625,-0.03515625,0.01953125,-0.015625,0.0,0.0,0.0
39080376,31064,0,1.00390625,-0.037109375,0.021484375,-0.015625,0.0,0.0,0.0
39081626,31065,0,1.0078125,-0.0390625,0.021484375,-0.017578125,0.0,0.0,0.0
39082877,31066,0,1.00390625,-0.0390625,0.01171875,-0.02734375,0.0,0.0,0.0
39084127,31067,0,1.00390625,-0.04296875,0.015625,-0.02734375,0.0,0.0,0.0
39085377,31068,0,0.998046875,-0.03515625,0.015625,-0.01953125,0.0,0.0,0.0
39086629,31069,0,1.0,-0.03515625,0.01953125,-0.015625,0.0,0.0,0.0
39087879,31070,0,1.0,-0.037109375,0.015625,-0.021484375,0.0,0.0,0.0
39089130,31071,0,1.005859375,-0.037109375,0.015625,-0.021484375,0.0,0.0,0.0
39090381,31072,0,1.00390625,-0.037109375,0.017578125,-0.01953125,0.0,0.0,0.0
39091631,31073,0,1.005859375,-0.041015625,0.01171875,-0.029296875,0.0,0.0,0.0
39092883,31074,0,1.0078125,-0.041015625,0.015625,-0.025390625,0.0,0.0,0.0
39094134,31075,0,1.0078125,-0.0390625,0.01953125,-0.01953125,0.0,0.0,0.0
39095384,31076,0,1.005859375,-0.037109375,0.021484375,-0.015625,0.0,0.0,0.0
39096635,31077,0,1.005859375,-0.03125,0.017578125,-0.013671875,0.0,0.0,0.0
39097887,31078,0,1.0,-0.03125,0.01953125,-0.01171875,0.0,0.0,0.0
39099137,31079,0,1.0,-0.033203125,0.021484375,-0.01171875,0.0,0.0,0.0
39100388,31080,0,1.00390625,-0.0390625,0.009765625,-0.029296875,0.0,0.0,0.0
39101639,31081,0,1.0078125,-0.03515625,0.021484375,-0.013671875,0.0,0.0,0.0
39102889,31082,0,1.015625,-0.04296875,0.009765625,-0.033203125,0.0,0.0,0.0
39104140,31083,0,1.013671875,-0.03515625,0.013671875,-0.021484375,0.0,0.0,0.0
39105392,31084,0,1.001953125,-0.03515625,0.015625,-0.01953125,0.0,0.0,0.0
39106642,31085,0,1.005859375,-0.03515625,0.021484375,-0.013671875,0.0,0.0,0.0
39107894,31086,0,1.0,-0.03515625,0.01953125,-0.015625,0.0,0.0,0.0
39109145,31087,0,1.001953125,-0.03515625,0.01953125,-0.015625,0.0,0.0,0.0
39110396,31088,0,1.0078125,-0.041015625,0.013671875,-0.02734375,0.0,0.0,0.0
39111647,31089,0,1.005859375,-0.041015625,0.015625,-0.025390625,0.0,0.0,0.0
39112899,31090,0,1.001953125,-0.0390625,0.009765625,-0.029296875,0.0,0.0,0.0
39114150,31091,0,0.998046875,-0.037109375,0.01171875,-0.025390625,0.0,0.0,0.0
39115400,31092,0,1.0078125,-0.037109375,0.015625,-0.021484375,0.0,0.0,0.0
39116652,31093,0,1.00390625,-0.041015625,0.01171875,-0.029296875,0.0,0.0,0.0
39117902,31094,0,1.0078125,-0.03515625,0.01171875,-0.0234375,0.0,0.0,0.0
39119152,31095,0,1.00390625,-0.03515625,0.01171875,-0.0234375,0.0,0.0,0.0
39120402,31096,0,1.0078125,-0.03515625,0.01171875,-0.0234375,0.0,0.0,0.0
39121653,31097,0,0.998046875,-0.044921875,0.01171875,-0.033203125,0.0,0.0,0.0
39122904,31098,0,0.998046875,-0.03515625,0.013671875,-0.021484375,0.0,0.0,0.0
39124154,31099,0,1.001953125,-0.041015625,0.01171875,-0.029296875,0.0,0.0,0.0
39125406,31100,0,1.009765625,-0.0390625,0.01171875,-0.02734375,0.0,0.0,0.0
39126657,31101,0,1.001953125,-0.041015625,0.01953125,-0.021484375,0.0,0.0,0.0
39127907,31102,0,1.015625,-0.037109375,0.005859375,-0.03125,0.0,0.0,0.0
39129158,31103,0,1.005859375,-0.041015625,0.015625,-0.025390625,0.0,0.0,0.0
39130408,31104,0,1.001953125,-0.0390625,0.013671875,-0.025390625,0.0,0.0,0.0
39131659,31105,0,0.990234375,-0.0390625,0.01171875,-0.02734375,0.0,0.0,0.0
39132910,31106,0,1.001953125,-0.04296875,0.015625,-0.02734375,0.0,0.0,0.0
39134160,31107,0,1.00390625,-0.037109375,0.015625,-0.021484375,0.0,0.0,0.0
39135410,31108,0,0.994140625,-0.037109375,0.0078125,-0.029296875,0.0,0.0,0.0
39136662,31109,0,1.0078125,-0.041015625,0.01171875,-0.029296875,0.0,0.0,0.0
39137912,31110,0,1.001953125,-0.03515625,0.009765625,-0.025390625,0.0,0.0,0.0
39139163,31111,0,1.001953125,-0.0390625,0.013671875,-0.025390625,0.0,0.0,0.0
39140413,31112,0,0.998046875,-0.037109375,0.01171875,-0.025390625,0.0,0.0,0.0
39141664,31113,0,1.005859375,-0.041015625,0.0078125,-0.033203125,0.0,0.0,0.0
39142915,31114,0,1.0,-0.04296875,0.01171875,-0.03125,0.0,0.0,0.0
39144167,31115,0,1.0,-0.0390625,0.01953125,-0.01953125,0.0,0.0,0.0
39145417,31116,0,0.994140625,-0.04296875,0.017578125,-0.025390625,0.0,0.0,0.0
39146668,31117,0,1.00390625,-0.044921875,0.013671875,-0.03125,0.0,0.0,0.0
39147920,31118,0,1.00390625,-0.04296875,0.013671875,-0.029296875,0.0,0.0,0.0
39149171,31119,0,1.001953125,-0.041015625,0.013671875,-0.02734375,0.0,0.0,0.0
39150422,31120,0,1.00390625,-0.044921875,0.013671875,-0.03125,0.0,0.0,0.0
39151674,31121,0,0.998046875,-0.0390625,0.01953125,-0.01953125,0.0,0.0,0.0
39152924,31122,0,1.0,-0.041015625,0.005859375,-0.03515625,0.0,0.0,0.0
39154175,31123,0,0.994140625,-0.05078125,0.017578125,-0.033203125,0.0,0.0,0.0
39155426,31124,0,0.994140625,-0.04296875,0.0078125,-0.03515625,0.0,0.0,0.0
39156677,31125,0,1.001953125,-0.044921875,0.009765625,-0.03515625,0.0,0.0,0.0
39157928,31126,0,1.00390625,-0.052734375,0.005859375,-0.046875,0.0,0.0,0.0
39159179,31127,0,1.001953125,-0.048828125,0.005859375,-0.04296875,0.0,0.0,0.0
39160431,31128,0,1.0,-0.0546875,0.0078125,-0.046875,0.0,0.0,0.0
39161681,31129,0,0.998046875,-0.064453125,-0.001953125,-0.06640625,0.0,0.0,0.0
39162932,31130,0,1.0,-0.056640625,0.00390625,-0.052734375,0.0,0.0,0.0
39164182,31131,0,1.001953125,-0.033203125,0.017578125,-0.015625,0.0,0.0,0.0
39165432,31132,0,1.005859375,-0.033203125,0.01953125,-0.013671875,0.0,0.0,0.0
39166684,31133,0,1.005859375,-0.03515625,0.015625,-0.01953125,0.0,0.0,0.0
39167934,31134,0,1.001953125,-0.044921875,0.01171875,-0.033203125,0.0,0.0,0.0
39169185,31135,0,1.0,-0.048828125,0.01171875,-0.037109375,0.0,0.0,0.0
39170436,31136,0,1.001953125,-0.048828125,0.009765625,-0.0390625,0.0,0.0,0.0
39171687,31137,0,1.0,-0.048828125,0.001953125,-0.046875,0.0,0.0,0.0
39172937,31138,0,0.998046875,-0.064453125,0.001953125,-0.0625,0.0,0.0,0.0
39174187,31139,0,0.9921875,-0.080078125,-0.005859375,-0.0859375,0.0,0.0,0.0
39175439,31140,0,0.990234375,-0.107421875,-0.01171875,-0.119140625,0.0,0.0,0.0
39176690,31141,0,0.982421875,-0.107421875,-0.0234375,-0.130859375,0.0,0.0,0.0
39177940,31142,0,0.98828125,-0.037109375,0.01953125,-0.017578125,0.0,0.0,0.0
39179192,31143,0,1.015625,-0.037109375,0.01953125,-0.017578125,0.0,0.0,0.0
39180443,31144,0,1.0,-0.08984375,-0.009765625,-0.099609375,0.0,0.0,0.0
39181694,31145,0,0.96875,-0.1640625,-0.052734375,-0.216796875,0.0,0.0,0.0
39182944,31146,0,0.951171875,-0.369140625,-0.171875,-0.541015625,0.0,0.0,0.0
39184194,31147,0,0.943359375,-0.453125,-0.1171875,-0.5703125,0.0,0.0,0.0
39185445,31148,0,0.98046875,-0.4296875,-0.169921875,-0.599609375,0.0,0.0,0.0
39186697,31149,0,1.091796875,-0.265625,0.099609375,-0.166015625,0.0,0.0,-1.1368683772161603e-13
39189199,31151,0,1.0,-0.259765625,-0.04296875,-0.302734375,0.0,0.0,0.0
39190449,31152,0,0.935546875,-0.30078125,-0.078125,-0.37890625,0.0,0.0,0.0
39191701,31153,0,1.029296875,-0.326171875,-0.076171875,-0.40234375,0.0,0.0,0.0
39192951,31154,0,1.03125,-0.275390625,-0.0859375,-0.361328125,0.0,0.0,0.0
39194202,31155,0,0.982421875,-0.251953125,-0.060546875,-0.3125,0.0,0.0,0.0
39195454,31156,0,0.974609375,-0.234375,-0.072265625,-0.306640625,0.0,0.0,0.0
39196704,31157,0,1.025390625,-0.212890625,-0.068359375,-0.28125,0.0,0.0,0.0
39197955,31158,0,1.01953125,-0.18359375,-0.046875,-0.23046875,0.0,0.0,0.0
39199206,31159,0,0.974609375,-0.140625,-0.041015625,-0.181640625,0.0,0.0,0.0
39200457,31160,0,1.009765625,-0.134765625,-0.037109375,-0.171875,0.0,0.0,0.0
39201708,31161,0,1.015625,-0.150390625,-0.046875,-0.197265625,0.0,0.0,0.0
39202959,31162,0,0.9921875,-0.169921875,-0.056640625,-0.2265625,0.0,0.0,0.0
39204211,31163,0,1.01171875,-0.17578125,-0.0703125,-0.24609375,0.0,0.0,0.0
39205463,31164,0,0.990234375,-0.220703125,-0.0546875,-0.275390625,0.0,0.0,0.0
39206713,31165,0,1.001953125,-0.216796875,-0.0859375,-0.302734375,0.0,0.0,0.0
39207965,31166,0,1.015625,-0.189453125,-0.04296875,-0.232421875,0.0,0.0,0.0
39209215,31167,0,1.017578125,-0.142578125,-0.046875,-0.189453125,0.0,0.0,0.0
39210466,31168,0,0.978515625,-0.17578125,-0.068359375,-0.244140625,0.0,0.0,0.0
39211716,31169,0,0.9921875,-0.30078125,-0.095703125,-0.396484375,0.0,0.0,0.0
39212966,31170,0,1.009765625,-0.267578125,-0.119140625,-0.38671875,0.0,0.0,0.0
39214216,31171,0,0.98046875,-0.26171875,-0.07421875,-0.3359375,0.0,0.0,0.0
39215468,31172,0,0.9609375,-0.40625,-0.150390625,-0.556640625,0.0,0.0,0.0
39216719,31173,0,1.033203125,-0.392578125,-0.17578125,-0.568359375,0.0,0.0,0.0
39217970,31174,0,0.98828125,-0.4453125,-0.125,-0.5703125,0.0,0.0,0.0
39219221,31175,0,0.9921875,-0.39453125,-0.2421875,-0.63671875,0.0,0.0,0.0
39220471,31176,0,0.9921875,-0.421875,-0.091796875,-0.513671875,0.0,0.0,0.0
39221723,31177,0,0.9765625,-0.771484375,-0.314453125,-1.0859375,0.0,0.0,0.0
39222973,31178,0,0.78515625,-1.900390625,-0.51171875,-2.412109375,0.0,0.0,0.0
39224225,31179,0,0.609375,-3.904296875,-1.03515625,-4.939453125,0.0,0.0,0.0
39225476,31180,0,0.56640625,-4.0,-2.423828125,-6.423828125,0.0,0.0,0.0
39226727,31181,0,1.18359375,-4.0,-2.333984375,-6.333984375,0.0,0.0,0.0
39227977,31182,0,1.376953125,-3.193359375,-2.126953125,-5.3203125,0.0,0.0,0.0
39229228,31183,0,0.681640625,-1.201171875,-1.40234375,-2.603515625,0.0,0.0,0.0
39230479,31184,0,0.958984375,0.5234375,-1.03515625,-0.51171875,0.0,0.0,0.0
39231730,31185,0,1.3984375,2.150390625,-0.357421875,1.79296875,0.0,0.0,0.0
39232981,31186,0,1.248046875,3.44140625,0.28515625,3.7265625,0.0,0.0,0.0
39234233,31187,0,0.86328125,3.998046875,0.822265625,4.8203125,0.0,0.0,0.0
39235484,31188,0,1.0234375,3.998046875,1.2265625,5.224609375,0.0,0.0,0.0
39236734,31189,0,1.388671875,3.998046875,1.59375,5.591796875,0.0,0.0,0.0
39237984,31190,0,1.24609375,3.998046875,1.767578125,5.765625,0.0,0.0,0.0
39239235,31191,0,1.12890625,3.998046875,1.7421875,5.740234375,0.0,0.0,0.0
39240486,31192,0,1.203125,3.998046875,1.6015625,5.599609375,0.0,0.0,0.0
39241737,31193,0,1.107421875,3.8359375,1.3203125,5.15625,0.0,0.0,0.0
39242987,31194,0,1.015625,2.859375,0.947265625,3.806640625,0.0,0.0,0.0
39244238,31195,0,1.033203125,1.80078125,0.5234375,2.32421875,0.0,0.0,0.0
39245489,31196,0,1.0390625,0.705078125,0.095703125,0.80078125,0.0,0.0,0.0
39246740,31197,0,1.060546875,-0.345703125,-0.28515625,-0.630859375,0.0,0.0,0.0
39247992,31198,0,1.0234375,-1.318359375,-0.556640625,-1.875,0.0,0.0,0.0
39249242,31199,0,0.9296875,-2.1015625,-0.76171875,-2.86328125,0.0,0.0,0.0
39250493,31200,0,0.900390625,-2.6953125,-0.927734375,-3.623046875,0.0,0.0,0.0
39251744,31201,0,0.869140625,-3.05078125,-0.98046875,-4.03125,0.0,0.0,0.0
39252994,31202,0,0.830078125,-3.16796875,-1.025390625,-4.193359375,0.0,0.0,0.0
39254245,31203,0,0.91015625,-3.052734375,-1.00390625,-4.056640625,0.0,0.0,0.0
39255497,31204,0,0.966796875,-2.732421875,-0.9140625,-3.646484375,0.0,0.0,0.0
39256749,31205,0,0.9453125,-2.23828125,-0.7890625,-3.02734375,0.0,0.0,0.0
39257999,31206,0,0.970703125,-1.64453125,-0.607421875,-2.251953125,0.0,0.0,0.0
39259250,31207,0,0.9609375,-0.962890625,-0.39453125,-1.357421875,0.0,0.0,0.0
39260500,31208,0,0.9609375,-0.2734375,-0.197265625,-0.470703125,0.0,0.0,0.0
39261752,31209,0,1.013671875,0.37109375,0.20703125,0.578125,0.0,0.0,0.0
39263003,31210,0,1.0390625,1.3984375,0.384765625,1.783203125,0.0,0.0,0.0
39264254,31211,0,1.072265625,1.716796875,0.52734375,2.244140625,0.0,0.0,0.0
39265504,31212,0,1.078125,1.892578125,0.626953125,2.51953125,0.0,0.0,0.0
39266756,31213,0,1.060546875,1.93359375,0.6640625,2.59765625,0.0,0.0,0.0
39268006,31214,0,1.095703125,1.822265625,0.66015625,2.482421875,0.0,0.0,0.0
39269257,31215,0,1.0390625,1.61328125,0.5703125,2.18359375,0.0,0.0,0.0
39270508,31216,0,1.044921875,1.298828125,0.470703125,1.76953125,0.0,0.0,0.0
39271759,31217,0,1.06640625,0.908203125,0.31640625,1.224609375,0.0,0.0,0.0
39273009,31218,0,1.04296875,0.498046875,0.181640625,0.6796875,0.0,0.0,0.0
39274259,31219,0,1.009765625,0.0703125,0.02734375,0.09765625,0.0,0.0,0.0
39275510,31220,0,0.998046875,-0.3125,-0.080078125,-0.392578125,0.0,0.0,0.0
39276762,31221,0,0.95703125,-0.66796875,-0.197265625,-0.865234375,0.0,0.0,0.0
39278013,31222,0,0.955078125,-0.931640625,-0.2734375,-1.205078125,0.0,0.0,0.0
39279271,31223,0,0.974609375,-1.125,-0.3359375,-1.4609375,0.0,0.0,0.0
39280522,31224,0,0.98046875,-1.216796875,-0.373046875,-1.58984375,0.0,0.0,0.0
39281773,31225,0,0.998046875,-1.21484375,-0.369140625,-1.583984375,0.0,0.0,0.0
39283025,31226,0,0.984375,-1.115234375,-0.3359375,-1.451171875,0.0,0.0,0.0
39284277,31227,0,0.95703125,-0.95703125,-0.296875,-1.25390625,0.0,0.0,0.0
39285528,31228,0,0.947265625,-0.732421875,-0.216796875,-0.94921875,0.0,0.0,0.0
39286779,31229,0,0.98046875,-0.49609375,-0.154296875,-0.650390625,0.0,0.0,0.0
39288031,31230,0,1.0078125,-0.212890625,-0.080078125,-0.29296875,0.0,0.0,0.0
39289283,31231,0,1.0234375,0.037109375,0.001953125,0.0390625,0.0,0.0,0.0
39290535,31232,0,1.04296875,0.26953125,0.087890625,0.357421875,0.0,0.0,0.0
39291786,31233,0,1.033203125,0.466796875,0.15234375,0.619140625,0.0,0.0,0.0
39293036,31234,0,1.01953125,0.626953125,0.22265625,0.849609375,0.0,0.0,0.0
39294287,31235,0,1.033203125,0.70703125,0.25390625,0.9609375,0.0,0.0,0.0
39295537,31236,0,1.01171875,0.75390625,0.275390625,1.029296875,0.0,0.0,0.0
39296787,31237,0,1.037109375,0.72265625,0.265625,0.98828125,0.0,0.0,0.0
39298038,31238,0,1.048828125,0.6484375,0.240234375,0.888671875,0.0,0.0,0.0
39299289,31239,0,1.04296875,0.53515625,0.197265625,0.732421875,0.0,0.0,0.0
39300539,31240,0,1.03125,0.384765625,0.158203125,0.54296875,0.0,0.0,0.0
39301790,31241,0,1.00390625,0.216796875,0.1015625,0.318359375,0.0,0.0,0.0
39303042,31242,0,0.982421875,0.05078125,0.04296875,0.09375,0.0,0.0,0.0
39304292,31243,0,0.98828125,-0.107421875,-0.013671875,-0.12109375,0.0,0.0,0.0
39305543,31244,0,0.998046875,-0.25390625,-0.064453125,-0.318359375,0.0,0.0,0.0
39306794,31245,0,1.001953125,-0.36328125,-0.1015625,-0.46484375,0.0,0.0,0.0
39308044,31246,0,1.0078125,-0.4375,-0.125,-0.5625,0.0,0.0,0.0
39309294,31247,0,0.986328125,-0.490234375,-0.14453125,-0.634765625,0.0,0.0,0.0
39310544,31248,0,0.978515625,-0.494140625,-0.138671875,-0.6328125,0.0,0.0,0.0
39311796,31249,0,0.982421875,-0.470703125,-0.12890625,-0.599609375,0.0,0.0,0.0
39313047,31250,0,0.974609375,-0.408203125,-0.115234375,-0.5234375,0.0,0.0,0.0
39314297,31251,0,0.99609375,-0.33203125,-0.064453125,-0.396484375,0.0,0.0,0.0
39315548,31252,0,1.005859375,-0.236328125,-0.0390625,-0.275390625,0.0,0.0,0.0
39316800,31253,0,1.015625,-0.025390625,0.0078125,-0.017578125,0.0,0.0,0.0
39318050,31254,0,1.00390625,0.064453125,0.03515625,0.099609375,0.0,0.0,0.0
39319300,31255,0,1.0,0.142578125,0.06640625,0.208984375,0.0,0.0,0.0
39320550,31256,0,1.001953125,0.20703125,0.09375,0.30078125,0.0,0.0,0.0
39321801,31257,0,1.015625,0.25,0.111328125,0.361328125,0.0,0.0,0.0
39323052,31258,0,1.025390625,0.265625,0.11328125,0.37890625,0.0,0.0,0.0
39324302,31259,0,1.02734375,0.265625,0.103515625,0.369140625,0.0,0.0,0.0
39325553,31260,0,1.0234375,0.2265625,0.09765625,0.32421875,0.0,0.0,0.0
39326804,31261,0,1.009765625,0.1875,0.08203125,0.26953125,0.0,0.0,0.0
39328054,31262,0,1.001953125,0.125,0.0703125,0.1953125,0.0,0.0,0.0
39329305,31263,0,1.0,0.05859375,0.041015625,0.099609375,0.0,0.0,0.0
39330556,31264,0,1.005859375,-0.009765625,0.0234375,0.013671875,0.0,0.0,0.0
39331807,31265,0,1.0078125,-0.0703125,0.001953125,-0.068359375,0.0,0.0,0.0
39333058,31266,0,1.033203125,-0.126953125,-0.015625,-0.142578125,0.0,0.0,0.0
39334310,31267,0,1.0234375,-0.16796875,-0.033203125,-0.201171875,0.0,0.0,0.0
39335560,31268,0,0.990234375,-0.203125,-0.046875,-0.25,0.0,0.0,0.0
39336810,31269,0,0.99609375,-0.216796875,-0.0546875,-0.271484375,0.0,0.0,0.0
39338060,31270,0,1.001953125,-0.234375,-0.05859375,-0.29296875,0.0,0.0,0.0
39339311,31271,0,0.98828125,-0.2109375,-0.05078125,-0.26171875,0.0,0.0,0.0
39340561,31272,0,1.005859375,-0.1875,-0.052734375,-0.240234375,0.0,0.0,0.0
39341813,31273,0,1.0,-0.16015625,-0.0390625,-0.19921875,0.0,0.0,0.0
39343063,31274,0,1.0,-0.119140625,-0.02734375,-0.146484375,0.0,0.0,0.0
39344313,31275,0,1.009765625,-0.078125,-0.005859375,-0.083984375,0.0,0.0,0.0
39345565,31276,0,0.99609375,-0.029296875,0.01171875,-0.017578125,0.0,0.0,0.0
39346816,31277,0,0.998046875,0.009765625,0.025390625,0.03515625,0.0,0.0,0.0
39348066,31278,0,1.005859375,0.04296875,0.037109375,0.080078125,0.0,0.0,0.0
39349316,31279,0,1.009765625,0.072265625,0.04296875,0.115234375,0.0,0.0,0.0
39350567,31280,0,1.01171875,0.09375,0.0546875,0.1484375,0.0,0.0,0.0
39351817,31281,0,1.017578125,0.1015625,0.05859375,0.16015625,0.0,0.0,0.0
39353069,31282,0,1.005859375,0.09765625,0.05859375,0.15625,0.0,0.0,0.0
39354319,31283,0,1.001953125,0.087890625,0.056640625,0.14453125,0.0,0.0,0.0
39355570,31284,0,1.0078125,0.068359375,0.046875,0.115234375,0.0,0.0,0.0
39356822,31285,0,1.001953125,0.04296875,0.041015625,0.083984375,0.0,0.0,0.0
39358072,31286,0,1.00390625,0.013671875,0.029296875,0.04296875,0.0,0.0,0.0
39359322,31287,0,1.009765625,-0.017578125,0.01953125,0.001953125,0.0,0.0,0.0
39360572,31288,0,1.01171875,-0.0390625,0.01171875,-0.02734375,0.0,0.0,0.0
39361823,31289,0,1.00390625,-0.05859375,0.005859375,-0.052734375,0.0,0.0,0.0
39363075,31290,0,1.005859375,-0.076171875,-0.0078125,-0.083984375,0.0,0.0,0.0
39364326,31291,0,0.990234375,-0.091796875,-0.001953125,-0.09375,0.0,0.0,0.0
39365576,31292,0,0.990234375,-0.09375,-0.009765625,-0.103515625,0.0,0.0,0.0
39366827,31293,0,1.001953125,-0.095703125,-0.013671875,-0.109375,0.0,0.0,0.0
39368077,31294,0,1.009765625,-0.099609375,-0.0078125,-0.107421875,0.0,0.0,0.0
39369327,31295,0,1.0,-0.07421875,0.001953125,-0.072265625,0.0,0.0,0.0
39370578,31296,0,0.99609375,-0.0546875,-0.001953125,-0.056640625,0.0,0.0,0.0
39371829,31297,0,1.001953125,-0.03515625,0.009765625,-0.025390625,0.0,0.0,0.0
39373080,31298,0,1.005859375,-0.021484375,0.015625,-0.005859375,0.0,0.0,0.0
39374332,31299,0,1.001953125,-0.0078125,0.021484375,0.013671875,0.0,0.0,0.0
39375582,31300,0,1.0078125,0.00390625,0.021484375,0.025390625,0.0,0.0,0.0
39376834,31301,0,1.0078125,0.01171875,0.02734375,0.0390625,0.0,0.0,0.0
39378085,31302,0,1.0078125,0.015625,0.025390625,0.041015625,0.0,0.0,0.0
39379335,31303,0,1.00390625,0.021484375,0.029296875,0.05078125,0.0,0.0,0.0
39380586,31304,0,1.001953125,0.017578125,0.025390625,0.04296875,0.0,0.0,0.0
39381838,31305,0,1.009765625,0.0078125,0.017578125,0.025390625,0.0,0.0,0.0
39383088,31306,0,1.00390625,0.001953125,0.021484375,0.0234375,0.0,0.0,0.0
39384338,31307,0,1.0078125,-0.009765625,0.01953125,0.009765625,0.0,0.0,0.0
39385589,31308,0,1.0078125,-0.021484375,0.013671875,-0.0078125,0.0,0.0,0.0
39386839,31309,0,1.005859375,-0.02734375,0.00390625,-0.0234375,0.0,0.0,0.0
39388091,31310,0,1.0,-0.046875,0.0078125,-0.0390625,0.0,0.0,0.0
39389341,31311,0,0.99609375,-0.05859375,0.0,-0.05859375,0.0,0.0,0.0
39390592,31312,0,1.0,-0.0625,-0.001953125,-0.064453125,0.0,0.0,0.0
39391844,31313,0,0.998046875,-0.064453125,0.0,-0.064453125,0.0,0.0,0.0
39393094,31314,0,0.994140625,-0.072265625,-0.01171875,-0.083984375,0.0,0.0,0.0
39394344,31315,0,1.00390625,-0.068359375,-0.005859375,-0.07421875,0.0,0.0,0.0
39395595,31316,0,1.0,-0.072265625,-0.005859375,-0.078125,0.0,0.0,0.0
39396846,31317,0,1.001953125,-0.064453125,-0.01171875,-0.076171875,0.0,0.0,0.0
39398096,31318,0,0.994140625,-0.0546875,-0.001953125,-0.056640625,0.0,0.0,0.0
39399346,31319,0,1.001953125,-0.05078125,0.00390625,-0.046875,0.0,0.0,0.0
39400597,31320,0,1.001953125,-0.04296875,-0.001953125,-0.044921875,0.0,0.0,0.0
39401847,31321,0,1.00390625,-0.037109375,0.005859375,-0.03125,0.0,0.0,0.0
39403097,31322,0,1.00390625,-0.033203125,0.0078125,-0.025390625,0.0,0.0,0.0
39404349,31323,0,1.001953125,-0.02734375,0.013671875,-0.013671875,0.0,0.0,0.0
39405599,31324,0,0.998046875,-0.015625,0.015625,0.0,0.0,0.0,0.0
39406850,31325,0,1.005859375,-0.015625,0.015625,0.0,0.0,0.0,0.0
39408101,31326,0,1.0078125,-0.013671875,0.009765625,-0.00390625,0.0,0.0,0.0
39409351,31327,0,1.009765625,-0.013671875,0.009765625,-0.00390625,0.0,0.0,0.0
39410602,31328,0,1.0078125,-0.015625,0.015625,0.0,0.0,0.0,0.0
39411853,31329,0,1.009765625,-0.021484375,0.017578125,-0.00390625,0.0,0.0,0.0
39413103,31330,0,1.01171875,-0.021484375,0.015625,-0.005859375,0.0,0.0,0.0
39414355,31331,0,1.0078125,-0.029296875,0.013671875,-0.015625,0.0,0.0,0.0
39415606,31332,0,1.00390625,-0.03515625,0.009765625,-0.025390625,0.0,0.0,0.0
39416856,31333,0,1.0078125,-0.037109375,0.013671875,-0.0234375,0.0,0.0,0.0
39418108,31334,0,1.005859375,-0.037109375,0.01171875,-0.025390625,0.0,0.0,0.0
39419359,31335,0,1.009765625,-0.0390625,0.0,-0.0390625,0.0,0.0,0.0
39420610,31336,0,1.001953125,-0.041015625,0.0078125,-0.033203125,0.0,0.0,0.0
39421860,31337,0,1.001953125,-0.037109375,0.005859375,-0.03125,0.0,0.0,0.0
39423110,31338,0,1.00390625,-0.03515625,0.001953125,-0.033203125,0.0,0.0,0.0
39424362,31339,0,1.0,-0.029296875,0.0078125,-0.021484375,0.0,0.0,0.0
39425614,31340,0,1.001953125,-0.033203125,0.017578125,-0.015625,0.0,0.0,0.0
39426865,31341,0,1.00390625,-0.029296875,0.013671875,-0.015625,0.0,0.0,0.0
39428115,31342,0,0.998046875,-0.025390625,0.017578125,-0.0078125,0.0,0.0,0.0
39429366,31343,0,1.0078125,-0.021484375,0.015625,-0.005859375,0.0,0.0,0.0
39430616,31344,0,1.00390625,-0.017578125,0.015625,-0.001953125,0.0,0.0,0.0
39431867,31345,0,1.001953125,-0.017578125,0.017578125,0.0,0.0,0.0,0.0
39433118,31346,0,1.001953125,-0.013671875,0.021484375,0.0078125,0.0,0.0,0.0
39434368,31347,0,1.00390625,-0.017578125,0.021484375,0.00390625,0.0,0.0,0.0
39435619,31348,0,1.001953125,-0.013671875,0.017578125,0.00390625,0.0,0.0,0.0
39436871,31349,0,1.00390625,-0.017578125,0.015625,-0.001953125,0.0,0.0,0.0
39438121,31350,0,1.005859375,-0.017578125,0.0234375,0.005859375,0.0,0.0,0.0
39439371,31351,0,1.0078125,-0.0234375,0.015625,-0.0078125,0.0,0.0,0.0
39440623,31352,0,1.0078125,-0.02734375,0.009765625,-0.017578125,0.0,0.0,0.0
39441873,31353,0,1.0,-0.03125,0.021484375,-0.009765625,0.0,0.0,0.0
39443124,31354,0,0.99609375,-0.03515625,0.01171875,-0.0234375,0.0,0.0,0.0
39444376,31355,0,1.005859375,-0.046875,0.013671875,-0.033203125,0.0,0.0,0.0
39445626,31356,0,1.009765625,-0.033203125,0.01171875,-0.021484375,0.0,0.0,0.0
39446877,31357,0,0.990234375,-0.037109375,0.01171875,-0.025390625,0.0,0.0,0.0
39448127,31358,0,1.00390625,-0.037109375,0.01171875,-0.025390625,0.0,0.0,0.0
39449377,31359,0,1.0,-0.0390625,0.01171875,-0.02734375,0.0,0.0,0.0
39450629,31360,0,1.009765625,-0.04296875,0.01171875,-0.03125,0.0,0.0,0.0
39451879,31361,0,1.005859375,-0.041015625,0.00390625,-0.037109375,0.0,0.0,0.0
39453130,31362,0,1.001953125,-0.0390625,0.009765625,-0.029296875,0.0,0.0,0.0
39454381,31363,0,0.998046875,-0.0390625,0.013671875,-0.025390625,0.0,0.0,0.0
39455631,31364,0,1.009765625,-0.03515625,0.0078125,-0.02734375,0.0,0.0,0.0
39456883,31365,0,1.005859375,-0.03515625,0.005859375,-0.029296875,0.0,0.0,0.0
39458134,31366,0,1.001953125,-0.0390625,0.009765625,-0.029296875,0.0,0.0,0.0
39459384,31367,0,1.00390625,-0.0390625,0.005859375,-0.033203125,0.0,0.0,0.0
39460635,31368,0,1.009765625,-0.03515625,0.00390625,-0.03125,0.0,0.0,0.0
39461887,31369,0,1.001953125,-0.03515625,0.009765625,-0.025390625,0.0,0.0,0.0
39463137,31370,0,1.00390625,-0.0390625,0.005859375,-0.033203125,0.0,0.0,0.0
39464388,31371,0,1.0,-0.033203125,0.0078125,-0.025390625,0.0,0.0,0.0
39465639,31372,0,1.0,-0.03515625,0.01171875,-0.0234375,0.0,0.0,0.0
39466889,31373,0,0.998046875,-0.03515625,0.005859375,-0.029296875,0.0,0.0,0.0
39468140,31374,0,1.0,-0.033203125,0.001953125,-0.03125,0.0,0.0,0.0
39469392,31375,0,1.0078125,-0.03515625,0.001953125,-0.033203125,0.0,0.0,0.0
39470642,31376,0,1.00390625,-0.037109375,0.00390625,-0.033203125,0.0,0.0,0.0
39471894,31377,0,1.009765625,-0.037109375,0.005859375,-0.03125,0.0,0.0,0.0
39473145,31378,0,1.0,-0.044921875,0.0078125,-0.037109375,0.0,0.0,0.0
39474396,31379,0,0.998046875,-0.041015625,0.015625,-0.025390625,0.0,0.0,0.0
39475647,31380,0,0.998046875,-0.041015625,0.005859375,-0.03515625,0.0,0.0,0.0
39476899,31381,0,1.0078125,-0.03515625,0.0078125,-0.02734375,0.0,0.0,0.0
39478150,31382,0,1.009765625,-0.03515625,0.00390625,-0.03125,0.0,0.0,0.0
39479400,31383,0,1.001953125,-0.033203125,0.005859375,-0.02734375,0.0,0.0,0.0
39480652,31384,0,1.005859375,-0.03515625,0.00390625,-0.03125,0.0,0.0,0.0
39481902,31385,0,1.005859375,-0.02734375,0.009765625,-0.017578125,0.0,0.0,0.0
39483152,31386,0,0.998046875,-0.03125,0.0078125,-0.0234375,0.0,0.0,0.0
39484402,31387,0,1.00390625,-0.033203125,0.0078125,-0.025390625,0.0,0.0,0.0
39485653,31388,0,1.00390625,-0.025390625,0.009765625,-0.015625,0.0,0.0,0.0
39486904,31389,0,1.009765625,-0.02734375,0.015625,-0.01171875,0.0,0.0,0.0
39488154,31390,0,1.005859375,-0.025390625,0.015625,-0.009765625,0.0,0.0,0.0
39489406,31391,0,1.0078125,-0.0234375,0.009765625,-0.013671875,0.0,0.0,0.0
39490657,31392,0,1.005859375,-0.02734375,0.015625,-0.01171875,0.0,0.0,0.0
39491907,31393,0,1.00390625,-0.0234375,0.015625,-0.0078125,0.0,0.0,0.0
39493158,31394,0,1.00390625,-0.02734375,0.013671875,-0.013671875,0.0,0.0,0.0
39494408,31395,0,1.015625,-0.029296875,0.017578125,-0.01171875,0.0,0.0,0.0
39495659,31396,0,1.00390625,-0.01953125,0.017578125,-0.001953125,0.0,0.0,0.0
39496910,31397,0,1.0078125,-0.0234375,0.005859375,-0.017578125,0.0,0.0,0.0
39498160,31398,0,1.00390625,-0.0234375,0.013671875,-0.009765625,0.0,0.0,0.0
39499410,31399,0,1.00390625,-0.021484375,0.01953125,-0.001953125,0.0,0.0,0.0
39500662,31400,0,1.0,-0.02734375,0.017578125,-0.009765625,0.0,0.0,0.0
39501912,31401,0,1.005859375,-0.02734375,0.01171875,-0.015625,0.0,0.0,0.0
39503163,31402,0,1.00390625,-0.025390625,0.025390625,0.0,0.0,0.0,0.0
39504413,31403,0,1.0078125,-0.02734375,0.013671875,-0.013671875,0.0,0.0,0.0
39505664,31404,0,1.005859375,-0.03125,0.009765625,-0.021484375,0.0,0.0,0.0
39506915,31405,0,1.001953125,-0.029296875,0.009765625,-0.01953125,0.0,0.0,0.0
39508167,31406,0,1.005859375,-0.029296875,0.015625,-0.013671875,0.0,0.0,0.0
39509417,31407,0,1.00390625,-0.033203125,0.013671875,-0.01953125,0.0,0.0,0.0
39510668,31408,0,1.009765625,-0.03125,0.009765625,-0.021484375,0.0,0.0,0.0
39511920,31409,0,1.0078125,-0.03125,0.009765625,-0.021484375,0.0,0.0,0.0
39513171,31410,0,1.00390625,-0.03125,0.015625,-0.015625,0.0,0.0,0.0
39514422,31411,0,1.00390625,-0.03125,0.009765625,-0.021484375,0.0,0.0,0.0
39515674,31412,0,1.005859375,-0.033203125,0.015625,-0.017578125,0.0,0.0,0.0
39516924,31413,0,1.0078125,-0.03125,0.009765625,-0.021484375,0.0,0.0,0.0
39518175,31414,0,1.0078125,-0.03515625,0.013671875,-0.021484375,0.0,0.0,0.0
39519426,31415,0,1.00390625,-0.03515625,0.013671875,-0.021484375,0.0,0.0,0.0
39520677,31416,0,1.00390625,-0.04296875,0.0,-0.04296875,0.0,0.0,0.0
39521928,31417,0,1.0078125,-0.03515625,0.013671875,-0.021484375,0.0,0.0,0.0
39523179,31418,0,1.009765625,-0.0390625,0.005859375,-0.033203125,0.0,0.0,0.0
39524431,31419,0,1.00390625,-0.03515625,0.01171875,-0.0234375,0.0,0.0,0.0
39525681,31420,0,1.001953125,-0.041015625,0.01171875,-0.029296875,0.0,0.0,0.0
39526932,31421,0,1.00390625,-0.0390625,0.01171875,-0.02734375,0.0,0.0,0.0
39528182,31422,0,0.99609375,-0.037109375,0.009765625,-0.02734375,0.0,0.0,0.0
39529432,31423,0,1.0,-0.0390625,0.01171875,-0.02734375,0.0,0.0,0.0
39530684,31424,0,1.0,-0.03515625,0.01171875,-0.0234375,0.0,0.0,0.0
39531934,31425,0,1.00390625,-0.0390625,0.009765625,-0.029296875,0.0,0.0,0.0
39533185,31426,0,1.001953125,-0.0390625,0.005859375,-0.033203125,0.0,0.0,0.0
39534436,31427,0,0.998046875,-0.0390625,0.009765625,-0.029296875,0.0,0.0,0.0
39535687,31428,0,1.0,-0.033203125,0.0078125,-0.025390625,0.0,0.0,0.0
39536937,31429,0,1.0078125,-0.037109375,0.0078125,-0.029296875,0.0,0.0,0.0
39538187,31430,0,1.005859375,-0.037109375,0.009765625,-0.02734375,0.0,0.0,0.0
39539439,31431,0,1.0,-0.0390625,0.0078125,-0.03125,0.0,0.0,0.0
39540690,31432,0,1.001953125,-0.037109375,0.0,-0.037109375,0.0,0.0,0.0
39541940,31433,0,1.009765625,-0.037109375,0.009765625,-0.02734375,0.0,0.0,0.0
39543192,31434,0,0.998046875,-0.0390625,0.00390625,-0.03515625,0.0,0.0,0.0
39544443,31435,0,1.00390625,-0.03515625,0.013671875,-0.021484375,0.0,0.0,0.0
39545694,31436,0,1.00390625,-0.03515625,0.017578125,-0.017578125,0.0,0.0,0.0
39546944,31437,0,1.005859375,-0.03515625,0.00390625,-0.03125,0.0,0.0,0.0
39548194,31438,0,1.001953125,-0.033203125,0.0078125,-0.025390625,0.0,0.0,0.0
39549445,31439,0,1.00390625,-0.03125,0.009765625,-0.021484375,0.0,0.0,0.0
39550697,31440,0,0.990234375,-0.033203125,0.005859375,-0.02734375,0.0,0.0,0.0
39551947,31441,0,1.00390625,-0.03515625,0.01171875,-0.0234375,0.0,0.0,0.0
39553199,31442,0,1.009765625,-0.033203125,0.013671875,-0.01953125,0.0,0.0,0.0
39554449,31443,0,1.0078125,-0.029296875,0.017578125,-0.01171875,0.0,0.0,0.0
39555701,31444,0,0.998046875,-0.033203125,0.017578125,-0.015625,0.0,0.0,0.0
39556951,31445,0,1.001953125,-0.03125,0.013671875,-0.017578125,0.0,0.0,0.0
39558202,31446,0,1.005859375,-0.025390625,0.0078125,-0.017578125,0.0,0.0,0.0
39559454,31447,0,1.00390625,-0.029296875,0.01171875,-0.017578125,0.0,0.0,0.0
39560704,31448,0,1.00390625,-0.0234375,0.013671875,-0.009765625,0.0,0.0,0.0
39561955,31449,0,1.001953125,-0.029296875,0.01171875,-0.017578125,0.0,0.0,0.0
39563206,31450,0,1.001953125,-0.025390625,0.013671875,-0.01171875,0.0,0.0,0.0
39564457,31451,0,0.99609375,-0.025390625,0.017578125,-0.0078125,0.0,0.0,0.0
39565708,31452,0,1.001953125,-0.02734375,0.009765625,-0.017578125,0.0,0.0,0.0
39566959,31453,0,1.00390625,-0.02734375,0.017578125,-0.009765625,0.0,0.0,0.0
39568211,31454,0,1.00390625,-0.0234375,0.013671875,-0.009765625,0.0,0.0,0.0
39569463,31455,0,1.0078125,-0.02734375,0.01171875,-0.015625,0.0,0.0,0.0
39570713,31456,0,1.009765625,-0.025390625,0.015625,-0.009765625,0.0,0.0,0.0
39571965,31457,0,0.998046875,-0.0234375,0.01171875,-0.01171875,0.0,0.0,0.0
39573215,31458,0,0.998046875,-0.0234375,0.00390625,-0.01953125,0.0,0.0,0.0
39574466,31459,0,1.001953125,-0.021484375,0.01171875,-0.009765625,0.0,0.0,0.0
39575716,31460,0,1.00390625,-0.029296875,0.001953125,-0.02734375,0.0,0.0,0.0
39576966,31461,0,1.005859375,-0.03125,0.001953125,-0.029296875,0.0,0.0,0.0
39578216,31462,0,1.0,-0.029296875,0.015625,-0.013671875,0.0,0.0,0.0
39579468,31463,0,1.009765625,-0.033203125,0.01171875,-0.021484375,0.0,0.0,0.0
39580719,31464,0,1.005859375,-0.03125,0.009765625,-0.021484375,0.0,0.0,0.0
39581969,31465,0,0.998046875,-0.03515625,0.00390625,-0.03125,0.0,0.0,0.0
39583221,31466,0,1.00390625,-0.03125,0.009765625,-0.021484375,0.0,0.0,0.0
39584471,31467,0,1.001953125,-0.029296875,0.009765625,-0.01953125,0.0,0.0,0.0
39585723,31468,0,0.998046875,-0.037109375,0.01171875,-0.025390625,0.0,0.0,0.0
39586973,31469,0,1.001953125,-0.033203125,0.005859375,-0.02734375,0.0,0.0,0.0
39588225,31470,0,0.998046875,-0.037109375,0.013671875,-0.0234375,0.0,0.0,0.0
39589476,31471,0,1.00390625,-0.033203125,0.013671875,-0.01953125,0.0,0.0,0.0
39590727,31472,0,1.0078125,-0.033203125,0.009765625,-0.0234375,0.0,0.0,0.0
39591977,31473,0,1.005859375,-0.033203125,0.009765625,-0.0234375,0.0,0.0,0.0
39593228,31474,0,0.99609375,-0.033203125,0.009765625,-0.0234375,0.0,0.0,0.0
39594479,31475,0,1.00390625,-0.03515625,0.01171875,-0.0234375,0.0,0.0,0.0
39595730,31476,0,1.001953125,-0.0390625,0.00390625,-0.03515625,0.0,0.0,0.0
39596981,31477,0,1.00390625,-0.041015625,0.001953125,-0.0390625,0.0,0.0,0.0
39598233,31478,0,1.00390625,-0.037109375,0.013671875,-0.0234375,0.0,0.0,0.0
39599484,31479,0,1.001953125,-0.048828125,0.009765625,-0.0390625,0.0,0.0,0.0
39600734,31480,0,1.0078125,-0.033203125,0.01953125,-0.013671875,0.0,0.0,0.0
39601984,31481,0,1.00390625,-0.041015625,0.015625,-0.025390625,0.0,0.0,0.0
39603235,31482,0,0.990234375,-0.03125,0.0078125,-0.0234375,0.0,0.0,0.0
39604486,31483,0,1.0,-0.041015625,0.0078125,-0.033203125,0.0,0.0,0.0
39605737,31484,0,0.99609375,-0.037109375,0.01171875,-0.025390625,0.0,0.0,0.0
39606987,31485,0,0.99609375,-0.03515625,0.00390625,-0.03125,0.0,0.0,0.0
39608238,31486,0,1.009765625,-0.037109375,0.0,-0.037109375,0.0,0.0,0.0
39609489,31487,0,1.009765625,-0.03515625,0.01171875,-0.0234375,0.0,0.0,0.0
39610740,31488,0,1.0078125,-0.037109375,0.005859375,-0.03125,0.0,0.0,0.0
39611992,31489,0,1.001953125,-0.037109375,0.0078125,-0.029296875,0.0,0.0,0.0
39613242,31490,0,1.00390625,-0.0390625,0.013671875,-0.025390625,0.0,0.0,0.0
39614493,31491,0,1.0078125,-0.03515625,0.0078125,-0.02734375,0.0,0.0,0.0
39615744,31492,0,0.998046875,-0.03515625,0.009765625,-0.025390625,0.0,0.0,0.0
39616994,31493,0,1.00390625,-0.03515625,0.009765625,-0.025390625,0.0,0.0,0.0
39618245,31494,0,1.001953125,-0.033203125,0.009765625,-0.0234375,0.0,0.0,0.0
39619497,31495,0,1.0078125,-0.033203125,0.00390625,-0.029296875,0.0,0.0,0.0
39620749,31496,0,1.00390625,-0.03125,0.0078125,-0.0234375,0.0,0.0,0.0
39621999,31497,0,1.001953125,-0.029296875,0.013671875,-0.015625,0.0,0.0,0.0
39623250,31498,0,1.001953125,-0.03125,0.005859375,-0.025390625,0.0,0.0,0.0
39624500,31499,0,0.998046875,-0.02734375,0.01171875,-0.015625,0.0,0.0,0.0
39625752,31500,0,1.005859375,-0.02734375,0.01171875,-0.015625,0.0,0.0,0.0
39627003,31501,0,1.013671875,-0.029296875,0.01171875,-0.017578125,0.0,0.0,0.0
39628254,31502,0,1.01171875,-0.03125,0.015625,-0.015625,0.0,0.0,0.0
39629504,31503,0,1.00390625,-0.03125,0.005859375,-0.025390625,0.0,0.0,0.0
39630756,31504,0,1.00390625,-0.025390625,0.013671875,-0.01171875,0.0,0.0,0.0
39632006,31505,0,0.998046875,-0.02734375,0.005859375,-0.021484375,0.0,0.0,0.0
39633257,31506,0,1.013671875,-0.03125,0.009765625,-0.021484375,0.0,0.0,0.0
39634508,31507,0,1.001953125,-0.025390625,0.009765625,-0.015625,0.0,0.0,0.0
39635759,31508,0,1.0,-0.029296875,0.0078125,-0.021484375,0.0,0.0,0.0
39637009,31509,0,1.009765625,-0.033203125,0.015625,-0.017578125,0.0,0.0,0.0
39638259,31510,0,1.00390625,-0.029296875,0.0078125,-0.021484375,0.0,0.0,0.0
39639510,31511,0,1.005859375,-0.02734375,0.009765625,-0.017578125,0.0,0.0,0.0
39640762,31512,0,1.00390625,-0.02734375,0.0078125,-0.01953125,0.0,0.0,0.0
39642013,31513,0,1.009765625,-0.02734375,0.013671875,-0.013671875,0.0,0.0,0.0
39643271,31514,0,1.0,-0.03125,0.013671875,-0.017578125,0.0,0.0,0.0
39644522,31515,0,1.0078125,-0.025390625,0.013671875,-0.01171875,0.0,0.0,0.0
39645773,31516,0,1.0078125,-0.02734375,0.009765625,-0.017578125,0.0,0.0,0.0
39647025,31517,0,1.0,-0.03125,0.0078125,-0.0234375,0.0,0.0,0.0
39648277,31518,0,1.0078125,-0.03125,0.009765625,-0.021484375,0.0,0.0,0.0
39649528,31519,0,1.005859375,-0.03125,0.013671875,-0.017578125,0.0,0.0,0.0
39650779,31520,0,1.0,-0.037109375,0.009765625,-0.02734375,0.0,0.0,0.0
39652031,31521,0,1.001953125,-0.02734375,0.015625,-0.01171875,0.0,0.0,0.0
39653283,31522,0,1.0078125,-0.041015625,0.0078125,-0.033203125,0.0,0.0,0.0
39654535,31523,0,1.013671875,-0.03125,0.009765625,-0.021484375,0.0,0.0,0.0
39655786,31524,0,1.005859375,-0.03515625,0.00390625,-0.03125,0.0,0.0,0.0
39657036,31525,0,1.0078125,-0.033203125,0.013671875,-0.01953125,0.0,0.0,0.0
39658287,31526,0,0.9921875,-0.037109375,0.013671875,-0.0234375,0.0,0.0,0.0
39659537,31527,0,0.994140625,-0.037109375,0.013671875,-0.0234375,0.0,0.0,0.0
39660787,31528,0,1.005859375,-0.02734375,0.009765625,-0.017578125,0.0,0.0,0.0
39662038,31529,0,1.005859375,-0.03125,0.005859375,-0.025390625,0.0,0.0,0.0
39663289,31530,0,1.0078125,-0.03515625,0.01171875,-0.0234375,0.0,0.0,0.0
39664539,31531,0,1.005859375,-0.03515625,0.013671875,-0.021484375,0.0,0.0,0.0
39665790,31532,0,1.0,-0.037109375,0.00390625,-0.033203125,0.0,0.0,0.0
39667042,31533,0,1.0,-0.037109375,0.00390625,-0.033203125,0.0,0.0,0.0
39668292,31534,0,1.001953125,-0.03515625,0.0078125,-0.02734375,0.0,0.0,0.0
39669543,31535,0,1.0,-0.0390625,0.005859375,-0.033203125,0.0,0.0,0.0
39670794,31536,0,1.005859375,-0.037109375,0.0078125,-0.029296875,0.0,0.0,0.0
39672044,31537,0,1.005859375,-0.03515625,0.0078125,-0.02734375,0.0,0.0,0.0
39673294,31538,0,1.001953125,-0.0390625,0.005859375,-0.033203125,0.0,0.0,0.0
39674544,31539,0,1.01171875,-0.03515625,0.009765625,-0.025390625,0.0,0.0,0.0
39675796,31540,0,1.005859375,-0.03515625,0.0078125,-0.02734375,0.0,0.0,0.0
39677047,31541,0,1.0,-0.037109375,0.009765625,-0.02734375,0.0,0.0,0.0
39678297,31542,0,1.0078125,-0.03515625,0.013671875,-0.021484375,0.0,0.0,0.0
39679548,31543,0,0.998046875,-0.03125,0.017578125,-0.013671875,0.0,0.0,0.0
39680800,31544,0,1.009765625,-0.033203125,0.015625,-0.017578125,0.0,0.0,0.0
39682050,31545,0,1.0078125,-0.0390625,0.017578125,-0.021484375,0.0,0.0,0.0
39683300,31546,0,1.0078125,-0.03515625,0.0078125,-0.02734375,0.0,0.0,0.0
39684550,31547,0,0.998046875,-0.03515625,0.01171875,-0.0234375,0.0,0.0,0.0
39685801,31548,0,1.00390625,-0.037109375,0.009765625,-0.02734375,0.0,0.0,0.0
39687052,31549,0,1.0078125,-0.033203125,0.0078125,-0.025390625,0.0,0.0,0.0
39688302,31550,0,1.005859375,-0.03515625,0.0078125,-0.02734375,0.0,0.0,0.0
39689553,31551,0,1.001953125,-0.03125,0.013671875,-0.017578125,0.0,0.0,0.0
39690804,31552,0,1.00390625,-0.033203125,0.01171875,-0.021484375,0.0,0.0,0.0
39692054,31553,0,0.998046875,-0.03515625,0.01171875,-0.0234375,0.0,0.0,0.0
39693305,31554,0,1.0078125,-0.033203125,0.013671875,-0.01953125,0.0,0.0,0.0
39694556,31555,0,1.0078125,-0.029296875,0.00390625,-0.025390625,0.0,0.0,0.0
39695807,31556,0,1.001953125,-0.033203125,0.01171875,-0.021484375,0.0,0.0,0.0
39697058,31557,0,0.998046875,-0.029296875,0.0078125,-0.021484375,0.0,0.0,0.0
39698310,31558,0,1.005859375,-0.03125,0.0078125,-0.0234375,0.0,0.0,0.0
39699560,31559,0,1.005859375,-0.02734375,0.01171875,-0.015625,0.0,0.0,0.0
39700810,31560,0,1.00390625,-0.029296875,0.01171875,-0.017578125,0.0,0.0,0.0
39702060,31561,0,1.01171875,-0.029296875,0.015625,-0.013671875,0.0,0.0,0.0
39703311,31562,0,1.00390625,-0.03125,0.013671875,-0.017578125,0.0,0.0,0.0
39704561,31563,0,1.01171875,-0.033203125,0.013671875,-0.01953125,0.0,0.0,0.0
39705813,31564,0,1.005859375,-0.02734375,0.013671875,-0.013671875,0.0,0.0,0.0
39707063,31565,0,1.00390625,-0.025390625,0.005859375,-0.01953125,0.0,0.0,0.0
39708313,31566,0,1.01171875,-0.025390625,0.0078125,-0.017578125,0.0,0.0,0.0
39709565,31567,0,0.9921875,-0.02734375,0.017578125,-0.009765625,0.0,0.0,0.0
39710816,31568,0,1.0,-0.025390625,0.013671875,-0.01171875,0.0,0.0,0.0
39712066,31569,0,1.0,-0.029296875,0.01171875,-0.017578125,0.0,0.0,0.0
39713316,31570,0,1.00390625,-0.03125,0.005859375,-0.025390625,0.0,0.0,0.0
39714567,31571,0,1.00390625,-0.033203125,0.01171875,-0.021484375,0.0,0.0,0.0
39715817,31572,0,0.998046875,-0.029296875,0.01171875,-0.017578125,0.0,0.0,0.0
39717069,31573,0,1.00390625,-0.029296875,0.013671875,-0.015625,0.0,0.0,0.0
39718319,31574,0,1.0,-0.029296875,0.0078125,-0.021484375,0.0,0.0,0.0
39719570,31575,0,1.005859375,-0.033203125,0.009765625,-0.0234375,0.0,0.0,0.0
39720822,31576,0,1.001953125,-0.03125,0.00390625,-0.02734375,0.0,0.0,0.0
39722072,31577,0,1.00390625,-0.033203125,0.00390625,-0.029296875,0.0,0.0,0.0
39723322,31578,0,1.00390625,-0.03125,0.01171875,-0.01953125,0.0,0.0,0.0
39724572,31579,0,1.005859375,-0.03515625,0.0078125,-0.02734375,0.0,0.0,0.0
39725823,31580,0,1.00390625,-0.037109375,0.01171875,-0.025390625,0.0,0.0,0.0
39727075,31581,0,1.001953125,-0.03125,0.009765625,-0.021484375,0.0,0.0,0.0
39728326,31582,0,1.00390625,-0.033203125,0.0078125,-0.025390625,0.0,0.0,0.0
39729576,31583,0,1.009765625,-0.033203125,0.009765625,-0.0234375,0.0,0.0,0.0
39730827,31584,0,1.01171875,-0.03125,0.005859375,-0.025390625,0.0,0.0,0.0
39732077,31585,0,1.005859375,-0.033203125,0.009765625,-0.0234375,0.0,0.0,0.0
39733327,31586,0,1.005859375,-0.03125,0.005859375,-0.025390625,0.0,0.0,0.0
39734578,31587,0,0.99609375,-0.037109375,0.00390625,-0.033203125,0.0,0.0,0.0
39735829,31588,0,1.00390625,-0.033203125,0.009765625,-0.0234375,0.0,0.0,0.0
39737080,31589,0,1.00390625,-0.0390625,0.009765625,-0.029296875,0.0,0.0,0.0
39738332,31590,0,0.998046875,-0.0390625,0.015625,-0.0234375,0.0,0.0,0.0
39739582,31591,0,1.0,-0.0390625,0.0078125,-0.03125,0.0,0.0,0.0
39740834,31592,0,1.0,-0.033203125,0.0078125,-0.025390625,0.0,0.0,0.0
39742085,31593,0,1.0,-0.037109375,0.009765625,-0.02734375,0.0,0.0,0.0
39743335,31594,0,1.001953125,-0.033203125,0.009765625,-0.0234375,0.0,0.0,0.0
39744586,31595,0,1.0078125,-0.03515625,0.009765625,-0.025390625,0.0,0.0,0.0
39745838,31596,0,1.0,-0.037109375,0.009765625,-0.02734375,0.0,0.0,0.0
39747088,31597,0,1.0,-0.037109375,0.013671875,-0.0234375,0.0,0.0,0.0
39748338,31598,0,1.0,-0.03515625,0.0078125,-0.02734375,0.0,0.0,0.0
39749589,31599,0,1.005859375,-0.037109375,0.013671875,-0.0234375,0.0,0.0,0.0
39750839,31600,0,1.0078125,-0.03515625,0.00390625,-0.03125,0.0,0.0,0.0
39752091,31601,0,1.001953125,-0.03125,0.013671875,-0.017578125,0.0,0.0,0.0
39753341,31602,0,1.00390625,-0.033203125,0.01171875,-0.021484375,0.0,0.0,0.0
39754592,31603,0,0.998046875,-0.033203125,0.01171875,-0.021484375,0.0,0.0,0.0
39755844,31604,0,1.001953125,-0.03515625,0.01171875,-0.0234375,0.0,0.0,0.0
39757094,31605,0,0.99609375,-0.033203125,0.013671875,-0.01953125,0.0,0.0,0.0
39758344,31606,0,1.00390625,-0.03515625,0.0078125,-0.02734375,0.0,0.0,0.0
39759595,31607,0,1.0078125,-0.03125,0.0078125,-0.0234375,0.0,0.0,0.0
39760846,31608,0,1.001953125,-0.03125,0.017578125,-0.013671875,0.0,0.0,0.0
39762096,31609,0,1.0,-0.02734375,0.01171875,-0.015625,0.0,0.0,0.0
39763346,31610,0,1.0,-0.03515625,0.015625,-0.01953125,0.0,0.0,0.0
39764597,31611,0,1.00390625,-0.029296875,0.005859375,-0.0234375,0.0,0.0,0.0
39765847,31612,0,1.0078125,-0.033203125,0.017578125,-0.015625,0.0,0.0,0.0
39767097,31613,0,1.005859375,-0.02734375,0.0078125,-0.01953125,0.0,0.0,0.0
39768349,31614,0,1.00390625,-0.029296875,0.013671875,-0.015625,0.0,0.0,0.0
39769599,31615,0,1.0,-0.03125,0.009765625,-0.021484375,0.0,0.0,0.0
39770850,31616,0,1.001953125,-0.033203125,0.0078125,-0.025390625,0.0,0.0,0.0
39772101,31617,0,1.001953125,-0.029296875,0.017578125,-0.01171875,0.0,0.0,0.0
39773351,31618,0,1.001953125,-0.033203125,0.013671875,-0.01953125,0.0,0.0,0.0
39774602,31619,0,1.001953125,-0.02734375,0.01171875,-0.015625,0.0,0.0,0.0
39775853,31620,0,0.998046875,-0.03125,0.017578125,-0.013671875,0.0,0.0,0.0
39777103,31621,0,0.998046875,-0.02734375,0.015625,-0.01171875,0.0,0.0,0.0
39778355,31622,0,1.005859375,-0.03125,0.013671875,-0.017578125,0.0,0.0,0.0
39779606,31623,0,1.0078125,-0.03125,0.0078125,-0.0234375,0.0,0.0,0.0
39780856,31624,0,1.00390625,-0.03125,0.01171875,-0.01953125,0.0,0.0,0.0
39782108,31625,0,1.0,-0.03125,0.009765625,-0.021484375,0.0,0.0,0.0
39783359,31626,0,1.0078125,-0.033203125,0.0078125,-0.025390625,0.0,0.0,0.0
39784610,31627,0,1.001953125,-0.029296875,0.0078125,-0.021484375,0.0,0.0,0.0
39785860,31628,0,1.001953125,-0.029296875,0.013671875,-0.015625,0.0,0.0,0.0
39787110,31629,0,1.00390625,-0.033203125,0.00390625,-0.029296875,0.0,0.0,0.0
39788362,31630,0,1.01171875,-0.033203125,0.017578125,-0.015625,0.0,0.0,0.0
39789614,31631,0,1.00390625,-0.033203125,0.005859375,-0.02734375,0.0,0.0,0.0
39790865,31632,0,1.005859375,-0.033203125,0.013671875,-0.01953125,0.0,0.0,0.0
39792115,31633,0,0.998046875,-0.029296875,0.00390625,-0.025390625,0.0,0.0,0.0
39793366,31634,0,1.001953125,-0.037109375,0.005859375,-0.03125,0.0,0.0,0.0
39794616,31635,0,1.001953125,-0.037109375,0.01171875,-0.025390625,0.0,0.0,0.0
39795867,31636,0,1.0078125,-0.033203125,0.00390625,-0.029296875,0.0,0.0,0.0
39797118,31637,0,1.00390625,-0.037109375,0.015625,-0.021484375,0.0,0.0,0.0
39798368,31638,0,1.0078125,-0.033203125,0.00390625,-0.029296875,0.0,0.0,0.0
39799619,31639,0,1.00390625,-0.037109375,0.009765625,-0.02734375,0.0,0.0,0.0
39800871,31640,0,1.00390625,-0.03515625,0.009765625,-0.025390625,0.0,0.0,0.0
39802121,31641,0,1.00390625,-0.037109375,0.009765625,-0.02734375,0.0,0.0,0.0
39803371,31642,0,1.001953125,-0.03515625,0.005859375,-0.029296875,0.0,0.0,0.0
39804623,31643,0,1.0078125,-0.033203125,0.0078125,-0.025390625,0.0,0.0,0.0
39805873,31644,0,1.005859375,-0.03515625,0.013671875,-0.021484375,0.0,0.0,0.0
39807124,31645,0,1.0078125,-0.037109375,0.005859375,-0.03125,0.0,0.0,0.0
39808376,31646,0,1.009765625,-0.037109375,0.0078125,-0.029296875,0.0,0.0,0.0
39809626,31647,0,1.00390625,-0.037109375,0.0078125,-0.029296875,0.0,0.0,0.0
39810877,31648,0,1.00390625,-0.037109375,0.0078125,-0.029296875,0.0,0.0,0.0
39812127,31649,0,1.001953125,-0.037109375,0.001953125,-0.03515625,0.0,0.0,0.0
39813377,31650,0,1.001953125,-0.03125,0.0078125,-0.0234375,0.0,0.0,0.0
39814629,31651,0,1.00390625,-0.033203125,0.0078125,-0.025390625,0.0,0.0,0.0
39815879,31652,0,0.99609375,-0.03125,0.009765625,-0.021484375,0.0,0.0,0.0
39817130,31653,0,1.001953125,-0.03125,0.01171875,-0.01953125,0.0,0.0,0.0
39818381,31654,0,1.0078125,-0.0390625,0.013671875,-0.025390625,0.0,0.0,0.0
39819631,31655,0,1.001953125,-0.037109375,0.0078125,-0.029296875,0.0,0.0,0.0
39820883,31656,0,1.00390625,-0.029296875,-0.00390625,-0.033203125,0.0,0.0,0.0
39822134,31657,0,1.00390625,-0.03515625,0.0078125,-0.02734375,0.0,0.0,0.0
39823384,31658,0,1.005859375,-0.03515625,0.009765625,-0.025390625,0.0,0.0,0.0
39824635,31659,0,1.001953125,-0.029296875,0.0078125,-0.021484375,0.0,0.0,0.0
39825887,31660,0,1.00390625,-0.02734375,0.009765625,-0.017578125,0.0,0.0,0.0
39827137,31661,0,1.005859375,-0.029296875,0.005859375,-0.0234375,0.0,0.0,0.0
39828388,31662,0,1.00390625,-0.029296875,0.0078125,-0.021484375,0.0,0.0,0.0
39829639,31663,0,1.0078125,-0.029296875,0.013671875,-0.015625,0.0,0.0,0.0
39830889,31664,0,1.005859375,-0.02734375,0.009765625,-0.017578125,0.0,0.0,0.0
39832140,31665,0,1.0078125,-0.02734375,0.009765625,-0.017578125,0.0,0.0,0.0
39833392,31666,0,1.0078125,-0.029296875,0.01171875,-0.017578125,0.0,0.0,0.0
39834642,31667,0,1.001953125,-0.02734375,0.0078125,-0.01953125,0.0,0.0,0.0
39835894,31668,0,1.00390625,-0.029296875,0.005859375,-0.0234375,0.0,0.0,0.0
39837145,31669,0,1.0,-0.029296875,0.005859375,-0.0234375,0.0,0.0,0.0
39838396,31670,0,1.0,-0.029296875,0.009765625,-0.01953125,0.0,0.0,0.0
39839647,31671,0,1.0078125,-0.029296875,0.015625,-0.013671875,0.0,0.0,0.0
39840899,31672,0,1.001953125,-0.03125,0.01171875,-0.01953125,0.0,0.0,0.0
39842150,31673,0,1.015625,-0.025390625,0.0078125,-0.017578125,0.0,0.0,0.0
39843400,31674,0,1.001953125,-0.03125,0.0078125,-0.0234375,0.0,0.0,0.0
39844652,31675,0,1.0078125,-0.033203125,0.015625,-0.017578125,0.0,0.0,0.0
39845902,31676,0,1.0,-0.033203125,0.005859375,-0.02734375,0.0,0.0,0.0
39847152,31677,0,1.00390625,-0.03515625,0.009765625,-0.025390625,0.0,0.0,0.0
39848402,31678,0,1.005859375,-0.03515625,0.0078125,-0.02734375,0.0,0.0,0.0
39849653,31679,0,1.0078125,-0.03125,0.009765625,-0.021484375,0.0,0.0,0.0
39850904,31680,0,1.0078125,-0.033203125,0.005859375,-0.02734375,0.0,0.0,0.0
39852154,31681,0,1.0078125,-0.033203125,0.009765625,-0.0234375,0.0,0.0,0.0
39853406,31682,0,0.998046875,-0.033203125,0.009765625,-0.0234375,0.0,0.0,0.0
39854657,31683,0,1.0,-0.03125,0.017578125,-0.013671875,0.0,0.0,0.0
39855907,31684,0,1.0078125,-0.03515625,0.01171875,-0.0234375,0.0,0.0,0.0
39857158,31685,0,1.005859375,-0.03515625,0.01171875,-0.0234375,0.0,0.0,0.0
39858408,31686,0,1.005859375,-0.03515625,0.01171875,-0.0234375,0.0,0.0,0.0
39859659,31687,0,1.0078125,-0.03125,0.013671875,-0.017578125,0.0,0.0,0.0
39860910,31688,0,1.005859375,-0.03515625,0.017578125,-0.017578125,0.0,0.0,0.0
39862160,31689,0,0.99609375,-0.03515625,0.0078125,-0.02734375,0.0,0.0,0.0
39863410,31690,0,1.009765625,-0.03515625,0.01171875,-0.0234375,0.0,0.0,0.0
39864662,31691,0,1.005859375,-0.033203125,0.01171875,-0.021484375,0.0,0.0,0.0
39865912,31692,0,1.0078125,-0.03515625,0.013671875,-0.021484375,0.0,0.0,0.0
39867163,31693,0,1.005859375,-0.033203125,0.015625,-0.017578125,0.0,0.0,0.0
39868413,31694,0,0.99609375,-0.037109375,0.009765625,-0.02734375,0.0,0.0,0.0
39869664,31695,0,1.0078125,-0.03515625,0.009765625,-0.025390625,0.0,0.0,0.0
39870915,31696,0,1.0,-0.0390625,0.0078125,-0.03125,0.0,0.0,0.0
39872167,31697,0,0.9921875,-0.037109375,0.017578125,-0.01953125,0.0,0.0,0.0
39873417,31698,0,1.005859375,-0.0390625,0.005859375,-0.033203125,0.0,0.0,0.0
39874668,31699,0,1.0,-0.03515625,0.013671875,-0.021484375,0.0,0.0,0.0
39875920,31700,0,1.00390625,-0.03515625,0.01171875,-0.0234375,0.0,0.0,0.0
39877171,31701,0,1.001953125,-0.037109375,0.01171875,-0.025390625,0.0,0.0,0.0
39878422,31702,0,1.001953125,-0.03515625,0.01171875,-0.0234375,0.0,0.0,0.0
39879674,31703,0,0.998046875,-0.0390625,0.0078125,-0.03125,0.0,0.0,0.0
39880924,31704,0,1.0078125,-0.03515625,0.009765625,-0.025390625,0.0,0.0,0.0
39882175,31705,0,1.001953125,-0.037109375,0.001953125,-0.03515625,0.0,0.0,0.0
39883426,31706,0,1.00390625,-0.03515625,0.00390625,-0.03125,0.0,0.0,0.0
39884677,31707,0,1.0,-0.037109375,0.005859375,-0.03125,0.0,0.0,0.0
39885928,31708,0,1.0,-0.037109375,0.01171875,-0.025390625,0.0,0.0,0.0
39887179,31709,0,1.005859375,-0.029296875,0.009765625,-0.01953125,0.0,0.0,0.0
39888431,31710,0,1.00390625,-0.03515625,0.015625,-0.01953125,0.0,0.0,0.0
39889681,31711,0,1.009765625,-0.033203125,0.01171875,-0.021484375,0.0,0.0,0.0
39890932,31712,0,1.001953125,-0.0390625,0.009765625,-0.029296875,0.0,0.0,0.0
39892182,31713,0,1.001953125,-0.03515625,0.017578125,-0.017578125,0.0,0.0,0.0
39893432,31714,0,1.0,-0.033203125,0.0078125,-0.025390625,0.0,0.0,0.0
39894684,31715,0,1.005859375,-0.03125,0.005859375,-0.025390625,0.0,0.0,0.0
39895934,31716,0,1.005859375,-0.03125,0.013671875,-0.017578125,0.0,0.0,0.0
39897185,31717,0,1.005859375,-0.029296875,0.013671875,-0.015625,0.0,0.0,0.0
39898436,31718,0,0.998046875,-0.02734375,0.01171875,-0.015625,0.0,0.0,0.0
39899687,31719,0,1.001953125,-0.03125,0.00390625,-0.02734375,0.0,0.0,0.0
39900937,31720,0,1.00390625,-0.02734375,0.0078125,-0.01953125,0.0,0.0,0.0
39902187,31721,0,1.00390625,-0.029296875,0.015625,-0.013671875,0.0,0.0,0.0
39903439,31722,0,1.00390625,-0.029296875,0.009765625,-0.01953125,0.0,0.0,0.0
39904690,31723,0,1.0,-0.02734375,0.01171875,-0.015625,0.0,0.0,0.0
39905940,31724,0,1.005859375,-0.033203125,0.01171875,-0.021484375,0.0,0.0,0.0
39907192,31725,0,1.0078125,-0.025390625,0.01171875,-0.013671875,0.0,0.0,0.0
39908443,31726,0,1.005859375,-0.025390625,0.01171875,-0.013671875,0.0,0.0,0.0
39909694,31727,0,1.0078125,-0.029296875,0.005859375,-0.0234375,0.0,0.0,0.0
39910944,31728,0,1.009765625,-0.02734375,0.0078125,-0.01953125,0.0,0.0,0.0
39912194,31729,0,0.998046875,-0.03125,0.013671875,-0.017578125,0.0,0.0,0.0
39913445,31730,0,1.001953125,-0.02734375,0.0078125,-0.01953125,0.0,0.0,0.0
39914697,31731,0,0.998046875,-0.033203125,0.009765625,-0.0234375,0.0,0.0,0.0
39915947,31732,0,1.005859375,-0.033203125,0.009765625,-0.0234375,0.0,0.0,0.0
39917199,31733,0,1.001953125,-0.03515625,0.013671875,-0.021484375,0.0,0.0,0.0
39918449,31734,0,1.005859375,-0.029296875,0.015625,-0.013671875,0.0,0.0,0.0
39919701,31735,0,1.01171875,-0.03125,0.015625,-0.015625,0.0,0.0,0.0
39920951,31736,0,1.0078125,-0.03125,0.00390625,-0.02734375,0.0,0.0,0.0
39922202,31737,0,1.0078125,-0.037109375,0.0078125,-0.029296875,0.0,0.0,0.0
39923454,31738,0,0.998046875,-0.03125,0.01171875,-0.01953125,0.0,0.0,0.0
39924704,31739,0,1.00390625,-0.029296875,0.009765625,-0.01953125,0.0,0.0,0.0
39925955,31740,0,1.001953125,-0.033203125,0.013671875,-0.01953125,0.0,0.0,0.0
39927206,31741,0,1.0078125,-0.03125,0.017578125,-0.013671875,0.0,0.0,0.0
39928457,31742,0,1.01953125,-0.041015625,0.009765625,-0.03125,0.0,0.0,0.0
39929708,31743,0,1.009765625,-0.037109375,0.00390625,-0.033203125,0.0,0.0,0.0
39930959,31744,0,1.00390625,-0.037109375,0.005859375,-0.03125,0.0,0.0,0.0
39932211,31745,0,1.001953125,-0.03125,0.00390625,-0.02734375,0.0,0.0,0.0
39933463,31746,0,1.0078125,-0.03515625,0.0078125,-0.02734375,0.0,0.0,0.0
39934713,31747,0,1.001953125,-0.037109375,0.009765625,-0.02734375,0.0,0.0,0.0
39935965,31748,0,1.005859375,-0.037109375,0.00390625,-0.033203125,0.0,0.0,0.0
39937215,31749,0,0.998046875,-0.03515625,0.0078125,-0.02734375,0.0,0.0,0.0
39938466,31750,0,1.001953125,-0.037109375,0.005859375,-0.03125,0.0,0.0,0.0
39939716,31751,0,1.00390625,-0.03515625,0.005859375,-0.029296875,0.0,0.0,0.0
39940966,31752,0,1.0078125,-0.0390625,0.005859375,-0.033203125,0.0,0.0,0.0
39942216,31753,0,1.005859375,-0.04296875,0.005859375,-0.037109375,0.0,0.0,0.0
39943468,31754,0,0.998046875,-0.03515625,0.0078125,-0.02734375,0.0,0.0,0.0
39944719,31755,0,1.009765625,-0.037109375,0.013671875,-0.0234375,0.0,0.0,0.0
39945969,31756,0,0.994140625,-0.037109375,0.0078125,-0.029296875,0.0,0.0,0.0
39947221,31757,0,1.00390625,-0.033203125,0.015625,-0.017578125,0.0,0.0,0.0
39948471,31758,0,1.005859375,-0.037109375,0.001953125,-0.03515625,0.0,0.0,0.0
39949723,31759,0,1.0078125,-0.037109375,0.01171875,-0.025390625,0.0,0.0,0.0
39950973,31760,0,1.009765625,-0.02734375,0.00390625,-0.0234375,0.0,0.0,0.0
39952225,31761,0,1.015625,-0.0390625,0.005859375,-0.033203125,0.0,0.0,0.0
39953476,31762,0,1.0078125,-0.03125,0.013671875,-0.017578125,0.0,0.0,0.0
39954727,31763,0,1.0,-0.033203125,0.0078125,-0.025390625,0.0,0.0,0.0
39955977,31764,0,1.00390625,-0.03515625,0.01171875,-0.0234375,0.0,0.0,0.0
39957228,31765,0,1.005859375,-0.03515625,0.009765625,-0.025390625,0.0,0.0,0.0
39958479,31766,0,1.005859375,-0.03515625,0.009765625,-0.025390625,0.0,0.0,0.0
39959730,31767,0,1.00390625,-0.03515625,0.013671875,-0.021484375,0.0,0.0,0.0
39960981,31768,0,1.001953125,-0.03125,0.01171875,-0.01953125,0.0,0.0,0.0
39962233,31769,0,1.005859375,-0.03125,0.01171875,-0.01953125,0.0,0.0,0.0
39963484,31770,0,0.998046875,-0.03125,0.013671875,-0.017578125,0.0,0.0,0.0
39964734,31771,0,1.001953125,-0.033203125,0.009765625,-0.0234375,0.0,0.0,0.0
39965984,31772,0,1.005859375,-0.033203125,0.0078125,-0.025390625,0.0,0.0,0.0
39967235,31773,0,1.0078125,-0.029296875,0.01171875,-0.017578125,0.0,0.0,0.0
39968486,31774,0,1.0,-0.02734375,0.009765625,-0.017578125,0.0,0.0,0.0
39969737,31775,0,1.0078125,-0.037109375,0.009765625,-0.02734375,0.0,0.0,0.0
39970987,31776,0,1.009765625,-0.03515625,0.009765625,-0.025390625,0.0,0.0,0.0
39972238,31777,0,1.009765625,-0.0234375,0.00390625,-0.01953125,0.0,0.0,0.0
39973489,31778,0,0.998046875,-0.0234375,0.0078125,-0.015625,0.0,0.0,0.0
39974740,31779,0,1.005859375,-0.025390625,0.009765625,-0.015625,0.0,0.0,0.0
39975992,31780,0,1.001953125,-0.02734375,0.0078125,-0.01953125,0.0,0.0,0.0
39977242,31781,0,1.0,-0.029296875,0.015625,-0.013671875,0.0,0.0,0.0
39978493,31782,0,1.0078125,-0.025390625,0.0078125,-0.017578125,0.0,0.0,0.0
39979744,31783,0,1.005859375,-0.03515625,0.00390625,-0.03125,0.0,0.0,0.0
39980994,31784,0,0.998046875,-0.03125,0.0078125,-0.0234375,0.0,0.0,0.0
39982245,31785,0,1.005859375,-0.02734375,0.013671875,-0.013671875,0.0,0.0,0.0
39983497,31786,0,1.001953125,-0.029296875,0.015625,-0.013671875,0.0,0.0,0.0
39984749,31787,0,1.0078125,-0.03125,0.013671875,-0.017578125,0.0,0.0,0.0
39985999,31788,0,1.001953125,-0.02734375,0.009765625,-0.017578125,0.0,0.0,0.0
39987250,31789,0,1.00390625,-0.03125,0.0078125,-0.0234375,0.0,0.0,0.0
39988500,31790,0,1.00390625,-0.03125,0.0078125,-0.0234375,0.0,0.0,0.0
39989752,31791,0,1.005859375,-0.033203125,0.01171875,-0.021484375,0.0,0.0,0.0
39991003,31792,0,1.005859375,-0.03125,0.009765625,-0.021484375,0.0,0.0,0.0
39992254,31793,0,1.005859375,-0.033203125,0.01171875,-0.021484375,0.0,0.0,0.0
39993504,31794,0,0.998046875,-0.037109375,0.005859375,-0.03125,0.0,0.0,0.0
39994756,31795,0,1.00390625,-0.03125,0.01171875,-0.01953125,0.0,0.0,0.0
39996006,31796,0,1.005859375,-0.033203125,0.009765625,-0.0234375,0.0,0.0,0.0
39997257,31797,0,1.005859375,-0.037109375,0.015625,-0.021484375,0.0,0.0,0.0
39998508,31798,0,1.001953125,-0.033203125,0.017578125,-0.015625,0.0,0.0,0.0
39999759,31799,0,0.998046875,-0.03125,0.00390625,-0.02734375,0.0,0.0,0.0
40001009,31800,0,0.998046875,-0.029296875,0.01171875,-0.017578125,0.0,0.0,0.0
40002259,31801,0,1.0078125,-0.03515625,0.01171875,-0.0234375,0.0,0.0,0.0
40003510,31802,0,1.00390625,-0.03125,0.01171875,-0.01953125,0.0,0.0,0.0
40004762,31803,0,0.994140625,-0.029296875,0.001953125,-0.02734375,0.0,0.0,0.0
40006013,31804,0,1.0,-0.0390625,0.005859375,-0.033203125,0.0,0.0,0.0
40007271,31805,0,0.99609375,-0.03515625,0.005859375,-0.029296875,0.0,0.0,0.0
40008522,31806,0,1.00390625,-0.03125,0.009765625,-0.021484375,0.0,0.0,0.0
40009773,31807,0,1.005859375,-0.037109375,0.013671875,-0.0234375,0.0,0.0,0.0
40011025,31808,0,1.005859375,-0.03515625,0.0078125,-0.02734375,0.0,0.0,0.0
40012277,31809,0,1.0078125,-0.037109375,0.015625,-0.021484375,0.0,0.0,0.0
40013528,31810,0,1.0,-0.03515625,0.015625,-0.01953125,0.0,0.0,0.0
40014779,31811,0,1.00390625,-0.03515625,0.0078125,-0.02734375,0.0,0.0,0.0
40016031,31812,0,0.998046875,-0.033203125,0.01171875,-0.021484375,0.0,0.0,0.0
40017283,31813,0,1.0,-0.033203125,0.01171875,-0.021484375,0.0,0.0,0.0
40018535,31814,0,1.0078125,-0.037109375,0.01171875,-0.025390625,0.0,0.0,0.0
40019786,31815,0,1.0078125,-0.03515625,0.0078125,-0.02734375,0.0,0.0,0.0
40021036,31816,0,1.005859375,-0.033203125,0.01171875,-0.021484375,0.0,0.0,0.0
40022287,31817,0,1.0078125,-0.033203125,0.0078125,-0.025390625,0.0,0.0,0.0
40023537,31818,0,1.005859375,-0.0390625,0.005859375,-0.033203125,0.0,0.0,0.0
40024787,31819,0,1.00390625,-0.033203125,0.0,-0.033203125,0.0,0.0,0.0
40026038,31820,0,1.005859375,-0.03515625,0.01171875,-0.0234375,0.0,0.0,0.0
40027289,31821,0,1.0078125,-0.029296875,0.01171875,-0.017578125,0.0,0.0,0.0
40028539,31822,0,1.005859375,-0.037109375,0.0078125,-0.029296875,0.0,0.0,0.0
40029790,31823,0,1.01953125,-0.03515625,0.01171875,-0.0234375,0.0,0.0,0.0
40031042,31824,0,1.005859375,-0.033203125,0.013671875,-0.01953125,0.0,0.0,0.0
40032292,31825,0,1.001953125,-0.0390625,0.0078125,-0.03125,0.0,0.0,0.0
40033543,31826,0,1.001953125,-0.03515625,0.001953125,-0.033203125,0.0,0.0,0.0
40034794,31827,0,1.005859375,-0.029296875,0.013671875,-0.015625,0.0,0.0,0.0
40036044,31828,0,1.001953125,-0.033203125,0.009765625,-0.0234375,0.0,0.0,0.0
40037294,31829,0,1.0078125,-0.033203125,0.01171875,-0.021484375,0.0,0.0,0.0
40038544,31830,0,1.0078125,-0.03125,0.009765625,-0.021484375,0.0,0.0,0.0
40039796,31831,0,1.005859375,-0.03125,0.01171875,-0.01953125,0.0,0.0,0.0
40041047,31832,0,1.001953125,-0.029296875,0.013671875,-0.015625,0.0,0.0,0.0
40042297,31833,0,1.001953125,-0.03515625,0.0078125,-0.02734375,0.0,0.0,0.0
40043548,31834,0,1.001953125,-0.03125,0.0078125,-0.0234375,0.0,0.0,0.0
40044800,31835,0,1.005859375,-0.029296875,0.01171875,-0.017578125,0.0,0.0,0.0
40046050,31836,0,1.00390625,-0.03125,0.0078125,-0.0234375,0.0,0.0,0.0
40047300,31837,0,1.001953125,-0.029296875,0.015625,-0.013671875,0.0,0.0,0.0
40048550,31838,0,1.009765625,-0.029296875,0.013671875,-0.015625,0.0,0.0,0.0
40049801,31839,0,1.001953125,-0.029296875,0.01171875,-0.017578125,0.0,0.0,0.0
40051052,31840,0,0.998046875,-0.037109375,0.015625,-0.021484375,0.0,0.0,0.0
40052302,31841,0,1.005859375,-0.037109375,0.005859375,-0.03125,0.0,0.0,0.0
40053553,31842,0,1.005859375,-0.03515625,0.009765625,-0.025390625,0.0,0.0,0.0
40054804,31843,0,1.009765625,-0.033203125,0.01171875,-0.021484375,0.0,0.0,0.0
40056054,31844,0,1.0078125,-0.033203125,0.005859375,-0.02734375,0.0,0.0,0.0
40057305,31845,0,1.009765625,-0.037109375,0.01171875,-0.025390625,0.0,0.0,0.0
40058556,31846,0,1.00390625,-0.02734375,0.009765625,-0.017578125,0.0,0.0,0.0
40059807,31847,0,1.009765625,-0.033203125,0.009765625,-0.0234375,0.0,0.0,0.0
40061058,31848,0,1.009765625,-0.03125,0.005859375,-0.025390625,0.0,0.0,0.0
40062310,31849,0,1.00390625,-0.03515625,0.013671875,-0.021484375,0.0,0.0,0.0
40063560,31850,0,1.00390625,-0.037109375,0.0078125,-0.029296875,0.0,0.0,0.0
40064810,31851,0,0.998046875,-0.029296875,0.00390625,-0.025390625,0.0,0.0,0.0
40066060,31852,0,1.00390625,-0.033203125,0.005859375,-0.02734375,0.0,0.0,0.0
40067311,31853,0,1.00390625,-0.029296875,0.01171875,-0.017578125,0.0,0.0,0.0
40068561,31854,0,1.001953125,-0.033203125,0.009765625,-0.0234375,0.0,0.0,0.0
40069813,31855,0,1.005859375,-0.03515625,0.0078125,-0.02734375,0.0,0.0,0.0
40071063,31856,0,1.001953125,-0.03515625,0.013671875,-0.021484375,0.0,0.0,0.0
40072313,31857,0,1.001953125,-0.037109375,0.0078125,-0.029296875,0.0,0.0,0.0
40073565,31858,0,1.0078125,-0.03515625,0.0078125,-0.02734375,0.0,0.0,0.0
40074816,31859,0,1.00390625,-0.033203125,0.015625,-0.017578125,0.0,0.0,0.0
40076066,31860,0,1.0078125,-0.03515625,0.00390625,-0.03125,0.0,0.0,0.0
40077316,31861,0,1.005859375,-0.033203125,0.0078125,-0.025390625,0.0,0.0,0.0
40078567,31862,0,1.005859375,-0.0390625,0.0078125,-0.03125,0.0,0.0,0.0
40079817,31863,0,1.00390625,-0.033203125,0.009765625,-0.0234375,0.0,0.0,0.0
40081069,31864,0,1.005859375,-0.03515625,0.005859375,-0.029296875,0.0,0.0,0.0
40082319,31865,0,1.013671875,-0.033203125,0.01171875,-0.021484375,0.0,0.0,0.0
40083570,31866,0,1.005859375,-0.02734375,0.00390625,-0.0234375,0.0,0.0,0.0
40084822,31867,0,1.001953125,-0.025390625,0.0078125,-0.017578125,0.0,0.0,0.0
40086072,31868,0,1.0078125,-0.037109375,0.0,-0.037109375,0.0,0.0,0.0
40087322,31869,0,1.009765625,-0.037109375,0.0078125,-0.029296875,0.0,0.0,0.0
40088572,31870,0,0.998046875,-0.03125,0.009765625,-0.021484375,0.0,0.0,0.0
40089823,31871,0,1.001953125,-0.03515625,0.009765625,-0.025390625,0.0,0.0,0.0
40091075,31872,0,1.005859375,-0.033203125,0.009765625,-0.0234375,0.0,0.0,0.0
40092326,31873,0,1.005859375,-0.025390625,0.00390625,-0.021484375,0.0,0.0,0.0
40093576,31874,0,1.005859375,-0.033203125,0.01953125,-0.013671875,0.0,0.0,0.0
40094827,31875,0,1.001953125,-0.02734375,0.01171875,-0.015625,0.0,0.0,0.0
40096077,31876,0,1.0,-0.03125,0.009765625,-0.021484375,0.0,0.0,0.0
40097327,31877,0,1.009765625,-0.029296875,0.009765625,-0.01953125,0.0,0.0,0.0
40098578,31878,0,1.0078125,-0.03515625,0.01171875,-0.0234375,0.0,0.0,0.0
40099829,31879,0,1.005859375,-0.033203125,0.005859375,-0.02734375,0.0,0.0,0.0
40101080,31880,0,1.001953125,-0.03125,0.013671875,-0.017578125,0.0,0.0,0.0
40102332,31881,0,1.009765625,-0.029296875,0.00390625,-0.025390625,0.0,0.0,0.0
40103582,31882,0,1.005859375,-0.029296875,0.005859375,-0.0234375,0.0,0.0,0.0
40104834,31883,0,1.00390625,-0.03515625,0.01171875,-0.0234375,0.0,0.0,0.0
40106085,31884,0,1.001953125,-0.03125,0.01171875,-0.01953125,0.0,0.0,0.0
40107335,31885,0,1.0078125,-0.033203125,0.0078125,-0.025390625,0.0,0.0,0.0
40108586,31886,0,1.009765625,-0.03125,0.00390625,-0.02734375,0.0,0.0,0.0
40109838,31887,0,1.015625,-0.033203125,0.013671875,-0.01953125,0.0,0.0,0.0
40111088,31888,0,1.009765625,-0.033203125,0.01171875,-0.021484375,0.0,0.0,0.0
40112338,31889,0,0.99609375,-0.033203125,0.005859375,-0.02734375,0.0,0.0,0.0
40113589,31890,0,1.0078125,-0.033203125,0.005859375,-0.02734375,0.0,0.0,0.0
40114839,31891,0,1.005859375,-0.033203125,0.009765625,-0.0234375,0.0,0.0,0.0
40116091,31892,0,1.00390625,-0.029296875,0.00390625,-0.025390625,0.0,0.0,0.0
40117341,31893,0,1.0078125,-0.033203125,0.005859375,-0.02734375,0.0,0.0,0.0
40118592,31894,0,1.005859375,-0.033203125,0.01171875,-0.021484375,0.0,0.0,0.0
40119844,31895,0,1.00390625,-0.029296875,0.01171875,-0.017578125,0.0,0.0,0.0
40121094,31896,0,1.005859375,-0.03515625,0.009765625,-0.025390625,0.0,0.0,0.0
40122344,31897,0,1.005859375,-0.03125,0.0078125,-0.0234375,0.0,0.0,0.0
40123595,31898,0,1.001953125,-0.03125,0.0078125,-0.0234375,0.0,0.0,0.0
40124846,31899,0,1.001953125,-0.037109375,0.0078125,-0.029296875,0.0,0.0,0.0
40126096,31900,0,1.00390625,-0.033203125,0.005859375,-0.02734375,0.0,0.0,0.0
40127346,31901,0,1.005859375,-0.029296875,0.009765625,-0.01953125,0.0,0.0,0.0
40128597,31902,0,1.005859375,-0.03515625,0.01171875,-0.0234375,0.0,0.0,0.0
40129847,31903,0,1.005859375,-0.033203125,0.0078125,-0.025390625,0.0,0.0,0.0
40131097,31904,0,1.005859375,-0.03125,0.00390625,-0.02734375,0.0,0.0,0.0
40132349,31905,0,1.021484375,-0.033203125,0.00390625,-0.029296875,0.0,0.0,0.0
40133599,31906,0,1.00390625,-0.033203125,0.0078125,-0.025390625,0.0,0.0,0.0
40134850,31907,0,1.00390625,-0.03125,0.009765625,-0.021484375,0.0,0.0,0.0
40136101,31908,0,1.0,-0.03515625,0.0078125,-0.02734375,0.0,0.0,0.0
40137351,31909,0,1.017578125,-0.033203125,0.0,-0.033203125,0.0,0.0,0.0
40138602,31910,0,1.0078125,-0.033203125,0.01171875,-0.021484375,0.0,0.0,0.0
40139853,31911,0,1.00390625,-0.0390625,0.009765625,-0.029296875,0.0,0.0,0.0
40141103,31912,0,1.0,-0.037109375,0.0078125,-0.029296875,0.0,0.0,0.0
40142355,31913,0,1.00390625,-0.03515625,0.015625,-0.01953125,0.0,0.0,0.0
40143606,31914,0,1.0078125,-0.03515625,0.005859375,-0.029296875,0.0,0.0,0.0
40144856,31915,0,1.0078125,-0.037109375,0.009765625,-0.02734375,0.0,0.0,0.0
40146108,31916,0,1.005859375,-0.033203125,0.0078125,-0.025390625,0.0,0.0,0.0
40147359,31917,0,1.001953125,-0.033203125,0.0078125,-0.025390625,0.0,0.0,0.0
40148610,31918,0,1.001953125,-0.03125,0.009765625,-0.021484375,0.0,0.0,0.0
40149860,31919,0,1.001953125,-0.037109375,0.005859375,-0.03125,0.0,0.0,0.0
40151110,31920,0,1.005859375,-0.03125,0.0078125,-0.0234375,0.0,0.0,0.0
40152362,31921,0,1.005859375,-0.03515625,0.009765625,-0.025390625,0.0,0.0,0.0
40153614,31922,0,1.001953125,-0.033203125,0.009765625,-0.0234375,0.0,0.0,0.0
40154865,31923,0,1.0078125,-0.033203125,0.0078125,-0.025390625,0.0,0.0,0.0
40156115,31924,0,1.00390625,-0.033203125,0.0078125,-0.025390625,0.0,0.0,0.0
40157366,31925,0,1.0078125,-0.03515625,0.013671875,-0.021484375,0.0,0.0,0.0
40158616,31926,0,1.013671875,-0.02734375,0.009765625,-0.017578125,0.0,0.0,0.0
40159867,31927,0,1.017578125,-0.033203125,0.01171875,-0.021484375,0.0,0.0,0.0
40161118,31928,0,1.00390625,-0.03125,0.005859375,-0.025390625,0.0,0.0,0.0
40162368,31929,0,1.0078125,-0.029296875,0.01171875,-0.017578125,0.0,0.0,0.0
40163619,31930,0,1.0078125,-0.03125,0.01171875,-0.01953125,0.0,0.0,0.0
40164871,31931,0,1.001953125,-0.037109375,0.0078125,-0.029296875,0.0,0.0,0.0
40166121,31932,0,0.99609375,-0.029296875,0.0078125,-0.021484375,0.0,0.0,0.0
40167371,31933,0,0.998046875,-0.029296875,0.009765625,-0.01953125,0.0,0.0,0.0
40168623,31934,0,1.00390625,-0.03515625,0.005859375,-0.029296875,0.0,0.0,0.0
40169873,31935,0,1.0078125,-0.033203125,0.0078125,-0.025390625,0.0,0.0,0.0
40171124,31936,0,1.00390625,-0.029296875,0.01171875,-0.017578125,0.0,0.0,0.0
40172376,31937,0,1.00390625,-0.029296875,0.013671875,-0.015625,0.0,0.0,0.0
40173626,31938,0,1.005859375,-0.037109375,0.009765625,-0.02734375,0.0,0.0,0.0
40174877,31939,0,1.0,-0.03125,0.01171875,-0.01953125,0.0,0.0,0.0
40176127,31940,0,1.005859375,-0.03515625,0.00390625,-0.03125,0.0,0.0,0.0
40177377,31941,0,1.005859375,-0.03125,0.009765625,-0.021484375,0.0,0.0,0.0
40178629,31942,0,1.005859375,-0.029296875,0.01171875,-0.017578125,0.0,0.0,0.0
40179879,31943,0,1.005859375,-0.03515625,0.0078125,-0.02734375,0.0,0.0,0.0
40181130,31944,0,1.001953125,-0.03125,0.013671875,-0.017578125,0.0,0.0,0.0
40182381,31945,0,0.99609375,-0.033203125,0.0078125,-0.025390625,0.0,0.0,0.0
40183631,31946,0,1.001953125,-0.037109375,0.013671875,-0.0234375,0.0,0.0,0.0
40184883,31947,0,1.009765625,-0.037109375,0.015625,-0.021484375,0.0,0.0,0.0
40186134,31948,0,1.005859375,-0.033203125,0.013671875,-0.01953125,0.0,0.0,0.0
40187384,31949,0,1.0078125,-0.03515625,0.01171875,-0.0234375,0.0,0.0,0.0
40188635,31950,0,1.001953125,-0.03125,0.009765625,-0.021484375,0.0,0.0,0.0
40189887,31951,0,1.009765625,-0.029296875,0.005859375,-0.0234375,0.0,0.0,0.0
40191137,31952,0,0.998046875,-0.033203125,0.013671875,-0.01953125,0.0,0.0,0.0
40192388,31953,0,1.00390625,-0.03125,0.0078125,-0.0234375,0.0,0.0,0.0
40193639,31954,0,1.00390625,-0.03515625,0.015625,-0.01953125,0.0,0.0,0.0
40194889,31955,0,0.994140625,-0.03125,0.01171875,-0.01953125,0.0,0.0,0.0
40196140,31956,0,1.009765625,-0.03515625,0.005859375,-0.029296875,0.0,0.0,0.0
40197392,31957,0,1.005859375,-0.03125,0.0078125,-0.0234375,0.0,0.0,0.0
40198642,31958,0,1.0078125,-0.033203125,0.005859375,-0.02734375,0.0,0.0,0.0
40199894,31959,0,1.005859375,-0.03515625,0.0078125,-0.02734375,0.0,0.0,0.0
40201145,31960,0,1.00390625,-0.033203125,0.00390625,-0.029296875,0.0,0.0,0.0
40202396,31961,0,1.005859375,-0.03125,0.005859375,-0.025390625,0.0,0.0,0.0
40203647,31962,0,1.001953125,-0.037109375,0.005859375,-0.03125,0.0,0.0,0.0
40204899,31963,0,1.005859375,-0.03125,0.0078125,-0.0234375,0.0,0.0,0.0
40206150,31964,0,0.99609375,-0.03515625,0.005859375,-0.029296875,0.0,0.0,0.0
40207400,31965,0,1.00390625,-0.03125,0.009765625,-0.021484375,0.0,0.0,0.0
40208652,31966,0,1.009765625,-0.03515625,0.005859375,-0.029296875,0.0,0.0,0.0
40209902,31967,0,1.013671875,-0.03125,0.0078125,-0.0234375,0.0,0.0,0.0
40211152,31968,0,1.001953125,-0.03515625,0.009765625,-0.025390625,0.0,0.0,0.0
40212402,31969,0,1.0078125,-0.033203125,0.009765625,-0.0234375,0.0,0.0,0.0
40213653,31970,0,1.009765625,-0.033203125,0.01171875,-0.021484375,0.0,0.0,0.0
40214904,31971,0,1.015625,-0.029296875,0.009765625,-0.01953125,0.0,0.0,0.0
40216154,31972,0,1.005859375,-0.033203125,0.0078125,-0.025390625,0.0,0.0,0.0
40217406,31973,0,1.001953125,-0.033203125,0.01171875,-0.021484375,0.0,0.0,0.0
40218657,31974,0,0.99609375,-0.029296875,0.001953125,-0.02734375,0.0,0.0,0.0
40219907,31975,0,0.998046875,-0.03125,0.009765625,-0.021484375,0.0,0.0,9.650802758272143e+36
40222408,31977,0,1.0,-0.03515625,0.0078125,-0.02734375,0.0,0.0,0.0
40223659,31978,0,1.001953125,-0.03125,0.015625,-0.015625,0.0,0.0,0.0
40224910,31979,0,0.998046875,-0.033203125,0.01171875,-0.021484375,0.0,0.0,0.0
40226160,31980,0,1.005859375,-0.03125,0.009765625,-0.021484375,0.0,0.0,0.0
40227410,31981,0,1.00390625,-0.029296875,0.01171875,-0.017578125,0.0,0.0,0.0
40228662,31982,0,1.0078125,-0.033203125,0.005859375,-0.02734375,0.0,0.0,0.0
40229912,31983,0,1.005859375,-0.03125,0.0078125,-0.0234375,0.0,0.0,0.0
40231163,31984,0,1.0,-0.033203125,0.0078125,-0.025390625,0.0,0.0,0.0
40232413,31985,0,1.0078125,-0.03125,0.005859375,-0.025390625,0.0,0.0,0.0
40233664,31986,0,1.001953125,-0.03515625,0.00390625,-0.03125,0.0,0.0,0.0
40234915,31987,0,1.00390625,-0.033203125,0.013671875,-0.01953125,0.0,0.0,0.0
40236167,31988,0,1.009765625,-0.03125,0.013671875,-0.017578125,0.0,0.0,0.0
40237417,31989,0,1.00390625,-0.03515625,0.0,-0.03515625,0.0,0.0,0.0
40238668,31990,0,1.01171875,-0.029296875,0.009765625,-0.01953125,0.0,0.0,0.0
40239920,31991,0,1.0,-0.033203125,0.0078125,-0.025390625,0.0,0.0,0.0
40241171,31992,0,1.001953125,-0.03125,0.009765625,-0.021484375,0.0,0.0,0.0
40242422,31993,0,1.0,-0.03125,0.01953125,-0.01171875,0.0,0.0,0.0
40243674,31994,0,1.001953125,-0.033203125,0.01171875,-0.021484375,0.0,0.0,0.0
40244924,31995,0,0.99609375,-0.029296875,0.0078125,-0.021484375,0.0,0.0,0.0
40246175,31996,0,1.0,-0.02734375,0.013671875,-0.013671875,0.0,0.0,0.0
40247426,31997,0,1.00390625,-0.03515625,0.0078125,-0.02734375,0.0,0.0,0.0
40248677,31998,0,0.998046875,-0.03125,0.01171875,-0.01953125,0.0,0.0,0.0
40249928,31999,0,1.0,-0.033203125,0.009765625,-0.0234375,0.0,0.0,0.0
40251179,32000,0,1.005859375,-0.03515625,0.0078125,-0.02734375,0.0,0.0,0.0
40252431,32001,0,1.00390625,-0.033203125,0.01171875,-0.021484375,0.0,0.0,0.0
40253681,32002,0,0.99609375,-0.029296875,0.015625,-0.013671875,0.0,0.0,0.0
40254932,32003,0,1.00390625,-0.03515625,0.00390625,-0.03125,0.0,0.0,0.0
40256182,32004,0,1.001953125,-0.03515625,0.0078125,-0.02734375,0.0,0.0,0.0
40257432,32005,0,1.005859375,-0.033203125,0.01171875,-0.021484375,0.0,0.0,0.0
40258684,32006,0,1.0,-0.03515625,0.009765625,-0.025390625,0.0,0.0,0.0
40259934,32007,0,1.00390625,-0.03125,0.013671875,-0.017578125,0.0,0.0,0.0
40261185,32008,0,1.001953125,-0.033203125,0.009765625,-0.0234375,0.0,0.0,0.0
40262436,32009,0,1.005859375,-0.03125,0.013671875,-0.017578125,0.0,0.0,0.0
40263687,32010,0,1.0,-0.029296875,0.00390625,-0.025390625,0.0,0.0,0.0
40264937,32011,0,1.001953125,-0.03515625,0.0078125,-0.02734375,0.0,0.0,0.0
40266187,32012,0,1.0078125,-0.037109375,0.005859375,-0.03125,0.0,0.0,0.0
40267439,32013,0,1.01171875,-0.03515625,0.0078125,-0.02734375,0.0,0.0,0.0
40268690,32014,0,1.009765625,-0.033203125,0.01171875,-0.021484375,0.0,0.0,0.0
40269940,32015,0,1.00390625,-0.02734375,0.017578125,-0.009765625,0.0,0.0,0.0
40271192,32016,0,1.0078125,-0.033203125,0.009765625,-0.0234375,0.0,0.0,0.0
40272443,32017,0,1.00390625,-0.03515625,0.0078125,-0.02734375,0.0,0.0,0.0
40273694,32018,0,1.00390625,-0.033203125,0.0078125,-0.025390625,0.0,0.0,0.0
40274944,32019,0,1.00390625,-0.033203125,0.00390625,-0.029296875,0.0,0.0,0.0
40276194,32020,0,1.0078125,-0.033203125,0.005859375,-0.02734375,0.0,0.0,0.0
40277445,32021,0,1.001953125,-0.033203125,0.00390625,-0.029296875,0.0,0.0,0.0
40278697,32022,0,1.001953125,-0.03515625,0.009765625,-0.025390625,0.0,0.0,0.0
40279947,32023,0,1.0078125,-0.03125,0.009765625,-0.021484375,0.0,0.0,0.0
40281199,32024,0,1.009765625,-0.03125,0.0078125,-0.0234375,0.0,0.0,0.0
40282449,32025,0,1.001953125,-0.033203125,0.01171875,-0.021484375,0.0,0.0,0.0
40283701,32026,0,1.0078125,-0.037109375,0.017578125,-0.01953125,0.0,0.0,0.0
40284951,32027,0,1.0,-0.037109375,0.013671875,-0.0234375,0.0,0.0,0.0
40286202,32028,0,1.001953125,-0.03125,0.005859375,-0.025390625,0.0,0.0,0.0
40287454,32029,0,1.005859375,-0.03515625,0.009765625,-0.025390625,0.0,0.0,0.0
40288704,32030,0,1.00390625,-0.033203125,0.0078125,-0.025390625,0.0,0.0,0.0
40289955,32031,0,1.001953125,-0.03125,0.01171875,-0.01953125,0.0,0.0,0.0
40291206,32032,0,1.009765625,-0.02734375,0.005859375,-0.021484375,0.0,0.0,0.0
40292457,32033,0,0.990234375,-0.03125,0.009765625,-0.021484375,0.0,0.0,0.0
40293708,32034,0,0.998046875,-0.03515625,0.013671875,-0.021484375,0.0,0.0,0.0
40294959,32035,0,1.0078125,-0.037109375,0.0078125,-0.029296875,0.0,0.0,0.0
40296211,32036,0,1.015625,-0.033203125,0.0078125,-0.025390625,0.0,0.0,0.0
40297463,32037,0,1.00390625,-0.0390625,0.0078125,-0.03125,0.0,0.0,0.0
40298713,32038,0,1.001953125,-0.03125,0.021484375,-0.009765625,0.0,0.0,0.0
40299965,32039,0,1.00390625,-0.03515625,0.009765625,-0.025390625,0.0,0.0,0.0
40301215,32040,0,0.998046875,-0.03125,0.005859375,-0.025390625,0.0,0.0,0.0
40302466,32041,0,1.01171875,-0.029296875,0.009765625,-0.01953125,0.0,0.0,0.0
40303716,32042,0,1.0078125,-0.037109375,0.0078125,-0.029296875,0.0,0.0,0.0
40304966,32043,0,1.005859375,-0.03125,0.005859375,-0.025390625,0.0,0.0,0.0
40306216,32044,0,1.005859375,-0.033203125,0.01171875,-0.021484375,0.0,0.0,0.0
40307468,32045,0,1.005859375,-0.033203125,0.013671875,-0.01953125,0.0,0.0,0.0
40308719,32046,0,1.00390625,-0.03515625,0.009765625,-0.025390625,0.0,0.0,0.0
40309969,32047,0,1.009765625,-0.03515625,0.01171875,-0.0234375,0.0,0.0,0.0
40311221,32048,0,1.0,-0.037109375,0.01171875,-0.025390625,0.0,0.0,0.0
40312471,32049,0,1.005859375,-0.03125,0.01171875,-0.01953125,0.0,0.0,0.0
40313723,32050,0,1.001953125,-0.03125,0.009765625,-0.021484375,0.0,0.0,0.0
40314973,32051,0,1.0078125,-0.03125,0.0078125,-0.0234375,0.0,0.0,0.0
40316225,32052,0,1.009765625,-0.029296875,0.017578125,-0.01171875,0.0,0.0,0.0
40317476,32053,0,1.005859375,-0.03125,0.013671875,-0.017578125,0.0,0.0,0.0
40318727,32054,0,0.998046875,-0.025390625,0.005859375,-0.01953125,0.0,0.0,0.0
40319977,32055,0,0.998046875,-0.03125,0.009765625,-0.021484375,0.0,0.0,0.0
40321228,32056,0,1.005859375,-0.03125,0.0,-0.03125,0.0,0.0,0.0
40322479,32057,0,1.005859375,-0.033203125,0.005859375,-0.02734375,0.0,0.0,0.0
40323730,32058,0,1.005859375,-0.033203125,0.01171875,-0.021484375,0.0,0.0,0.0
40324981,32059,0,1.005859375,-0.033203125,0.001953125,-0.03125,0.0,0.0,0.0
40326233,32060,0,1.0,-0.03125,0.0078125,-0.0234375,0.0,0.0,0.0
40327484,32061,0,1.0078125,-0.029296875,0.005859375,-0.0234375,0.0,0.0,0.0
40328734,32062,0,1.001953125,-0.033203125,0.01171875,-0.021484375,0.0,0.0,0.0
40329984,32063,0,1.001953125,-0.029296875,0.005859375,-0.0234375,0.0,0.0,0.0
40331235,32064,0,0.998046875,-0.037109375,0.01171875,-0.025390625,0.0,0.0,0.0
40332486,32065,0,1.00390625,-0.033203125,0.009765625,-0.0234375,0.0,0.0,0.0
40333737,32066,0,1.0,-0.037109375,0.0078125,-0.029296875,0.0,0.0,0.0
40334987,32067,0,1.009765625,-0.033203125,0.005859375,-0.02734375,0.0,0.0,0.0
40336238,32068,0,1.00390625,-0.033203125,0.01171875,-0.021484375,0.0,0.0,0.0
40337489,32069,0,1.005859375,-0.033203125,0.01171875,-0.021484375,0.0,0.0,0.0
40338740,32070,0,1.0078125,-0.03515625,0.009765625,-0.025390625,0.0,0.0,0.0
40339992,32071,0,1.005859375,-0.03515625,0.005859375,-0.029296875,0.0,0.0,0.0
40341242,32072,0,1.001953125,-0.0390625,0.005859375,-0.033203125,0.0,0.0,0.0
40342493,32073,0,1.00390625,-0.025390625,0.01171875,-0.013671875,0.0,0.0,0.0
40343744,32074,0,0.99609375,-0.03515625,0.0078125,-0.02734375,0.0,0.0,0.0
40344994,32075,0,1.005859375,-0.03515625,0.0078125,-0.02734375,0.0,0.0,0.0
40346245,32076,0,1.001953125,-0.037109375,0.009765625,-0.02734375,0.0,0.0,0.0
40347497,32077,0,1.0,-0.033203125,0.015625,-0.017578125,0.0,0.0,0.0
40348749,32078,0,1.00390625,-0.03125,0.0,-0.03125,0.0,0.0,0.0
40349999,32079,0,1.0,-0.03125,0.005859375,-0.025390625,0.0,0.0,0.0
40351250,32080,0,0.998046875,-0.03125,0.015625,-0.015625,0.0,0.0,0.0
40352500,32081,0,0.998046875,-0.033203125,0.0078125,-0.025390625,0.0,0.0,0.0
40353752,32082,0,0.99609375,-0.029296875,0.0078125,-0.021484375,0.0,0.0,0.0
40355003,32083,0,1.0,-0.033203125,0.005859375,-0.02734375,0.0,0.0,0.0
40356254,32084,0,1.005859375,-0.03515625,0.013671875,-0.021484375,0.0,0.0,0.0
40357504,32085,0,1.009765625,-0.033203125,0.013671875,-0.01953125,0.0,0.0,0.0
40358756,32086,0,1.0078125,-0.03515625,0.009765625,-0.025390625,0.0,0.0,0.0
40360006,32087,0,1.005859375,-0.03125,0.013671875,-0.017578125,0.0,0.0,0.0
40361257,32088,0,1.0078125,-0.03515625,0.013671875,-0.021484375,0.0,0.0,0.0
40362508,32089,0,1.0,-0.033203125,0.0078125,-0.025390625,0.0,0.0,0.0
40363759,32090,0,1.0078125,-0.033203125,0.01171875,-0.021484375,0.0,0.0,0.0
40365009,32091,0,1.0078125,-0.025390625,0.005859375,-0.01953125,0.0,0.0,0.0
40366259,32092,0,1.005859375,-0.03515625,0.0078125,-0.02734375,0.0,0.0,0.0
40367510,32093,0,1.0078125,-0.037109375,0.01171875,-0.025390625,0.0,0.0,0.0
40368762,32094,0,0.998046875,-0.037109375,0.00390625,-0.033203125,0.0,0.0,0.0
40370013,32095,0,1.005859375,-0.037109375,0.013671875,-0.0234375,0.0,0.0,0.0
40371271,32096,0,1.005859375,-0.033203125,0.01171875,-0.021484375,0.0,0.0,0.0
40372522,32097,0,1.0078125,-0.03515625,0.0078125,-0.02734375,0.0,0.0,0.0
40373773,32098,0,1.0,-0.03515625,0.005859375,-0.029296875,0.0,0.0,0.0
40375025,32099,0,1.0,-0.033203125,0.01171875,-0.021484375,0.0,0.0,0.0
40376277,32100,0,0.998046875,-0.03515625,0.013671875,-0.021484375,0.0,0.0,0.0
40377528,32101,0,1.013671875,-0.03515625,0.001953125,-0.033203125,0.0,0.0,0.0
40378779,32102,0,1.001953125,-0.029296875,0.0078125,-0.021484375,0.0,0.0,0.0
40380031,32103,0,1.0078125,-0.03515625,0.009765625,-0.025390625,0.0,0.0,0.0
40381283,32104,0,0.998046875,-0.033203125,0.009765625,-0.0234375,0.0,0.0,0.0
40382535,32105,0,1.00390625,-0.03125,0.005859375,-0.025390625,0.0,0.0,0.0
40383786,32106,0,1.00390625,-0.033203125,0.015625,-0.017578125,0.0,0.0,0.0
40385036,32107,0,1.001953125,-0.03515625,0.013671875,-0.021484375,0.0,0.0,0.0
40386287,32108,0,1.001953125,-0.033203125,0.009765625,-0.0234375,0.0,0.0,0.0
40387537,32109,0,1.001953125,-0.03125,0.009765625,-0.021484375,0.0,0.0,0.0
40388787,32110,0,1.005859375,-0.037109375,0.005859375,-0.03125,0.0,0.0,0.0
40390038,32111,0,1.00390625,-0.03125,0.005859375,-0.025390625,0.0,0.0,0.0
40391289,32112,0,1.00390625,-0.03515625,0.005859375,-0.029296875,0.0,0.0,0.0
40392539,32113,0,1.00390625,-0.029296875,0.01171875,-0.017578125,0.0,0.0,0.0
40393790,32114,0,1.001953125,-0.0390625,0.017578125,-0.021484375,0.0,0.0,0.0
40395042,32115,0,1.00390625,-0.03515625,0.015625,-0.01953125,0.0,0.0,0.0
40396292,32116,0,0.99609375,-0.03125,0.013671875,-0.017578125,0.0,0.0,0.0
40397543,32117,0,1.0,-0.03125,0.009765625,-0.021484375,0.0,0.0,0.0
40398794,32118,0,1.01171875,-0.0390625,0.0,-0.0390625,0.0,0.0,0.0
40400044,32119,0,1.001953125,-0.03515625,0.0078125,-0.02734375,0.0,0.0,0.0
40401294,32120,0,0.998046875,-0.04296875,0.005859375,-0.037109375,0.0,0.0,0.0
40402544,32121,0,1.015625,-0.0390625,0.017578125,-0.021484375,0.0,0.0,0.0
40403796,32122,0,0.99609375,-0.037109375,0.013671875,-0.0234375,0.0,0.0,0.0
40405047,32123,0,1.0078125,-0.037109375,0.001953125,-0.03515625,0.0,0.0,0.0
40406297,32124,0,1.005859375,-0.03125,0.0078125,-0.0234375,0.0,0.0,0.0
40407548,32125,0,0.99609375,-0.03515625,0.009765625,-0.025390625,0.0,0.0,0.0
40408800,32126,0,1.00390625,-0.029296875,0.005859375,-0.0234375,0.0,0.0,0.0
40410050,32127,0,1.0,-0.033203125,0.013671875,-0.01953125,0.0,0.0,0.0
40411300,32128,0,1.00390625,-0.037109375,0.009765625,-0.02734375,0.0,0.0,0.0
40412550,32129,0,1.00390625,-0.02734375,0.013671875,-0.013671875,0.0,0.0,0.0
40413801,32130,0,1.0078125,-0.03515625,0.013671875,-0.021484375,0.0,0.0,0.0
40415052,32131,0,1.0,-0.03125,0.005859375,-0.025390625,0.0,0.0,0.0
40416302,32132,0,1.0078125,-0.03125,0.00390625,-0.02734375,0.0,0.0,0.0
40417553,32133,0,1.0,-0.03125,0.01171875,-0.01953125,0.0,0.0,0.0
40418804,32134,0,1.0078125,-0.03515625,0.009765625,-0.025390625,0.0,0.0,0.0
40420054,32135,0,1.00390625,-0.03125,0.01171875,-0.01953125,0.0,0.0,0.0
40421305,32136,0,1.0078125,-0.03515625,0.01171875,-0.0234375,0.0,0.0,0.0
40422556,32137,0,1.0,-0.029296875,0.005859375,-0.0234375,0.0,0.0,0.0
40423807,32138,0,1.0078125,-0.037109375,0.0078125,-0.029296875,0.0,0.0,0.0
40425058,32139,0,0.998046875,-0.03515625,0.005859375,-0.029296875,0.0,0.0,0.0
40426310,32140,0,1.0078125,-0.03515625,0.0078125,-0.02734375,0.0,0.0,0.0
40427560,32141,0,0.99609375,-0.03125,0.015625,-0.015625,0.0,0.0,0.0
40428810,32142,0,0.99609375,-0.033203125,0.015625,-0.017578125,0.0,0.0,0.0
40430060,32143,0,1.0078125,-0.033203125,0.01171875,-0.021484375,0.0,0.0,0.0
40431311,32144,0,1.005859375,-0.03125,0.0078125,-0.0234375,0.0,0.0,0.0
40432561,32145,0,1.00390625,-0.03515625,0.0078125,-0.02734375,0.0,0.0,0.0
40433813,32146,0,1.001953125,-0.02734375,0.005859375,-0.021484375,0.0,0.0,0.0
40435063,32147,0,1.00390625,-0.033203125,0.005859375,-0.02734375,0.0,0.0,0.0
40436313,32148,0,1.005859375,-0.03515625,0.0078125,-0.02734375,0.0,0.0,0.0
40437565,32149,0,1.00390625,-0.025390625,0.013671875,-0.01171875,0.0,0.0,0.0
40438816,32150,0,1.00390625,-0.03515625,0.01171875,-0.0234375,0.0,0.0,0.0
40440066,32151,0,1.01171875,-0.03125,0.009765625,-0.021484375,0.0,0.0,0.0
40441316,32152,0,1.00390625,-0.03515625,0.01171875,-0.0234375,0.0,0.0,0.0
40442567,32153,0,0.998046875,-0.03125,0.013671875,-0.017578125,0.0,0.0,0.0
40443817,32154,0,1.001953125,-0.03125,0.0078125,-0.0234375,0.0,0.0,0.0
40445069,32155,0,1.0,-0.03515625,0.015625,-0.01953125,0.0,0.0,0.0
40446319,32156,0,1.001953125,-0.03125,0.00390625,-0.02734375,0.0,0.0,0.0
40447570,32157,0,1.005859375,-0.03125,0.01171875,-0.01953125,0.0,0.0,0.0
40448822,32158,0,1.005859375,-0.03125,0.0078125,-0.0234375,0.0,0.0,0.0
40450072,32159,0,1.013671875,-0.03515625,0.017578125,-0.017578125,0.0,0.0,0.0
40451322,32160,0,0.998046875,-0.033203125,0.005859375,-0.02734375,0.0,0.0,0.0
40452572,32161,0,0.994140625,-0.03515625,0.009765625,-0.025390625,0.0,0.0,0.0
40453823,32162,0,1.0,-0.037109375,0.015625,-0.021484375,0.0,0.0,0.0
40455075,32163,0,1.001953125,-0.02734375,0.017578125,-0.009765625,0.0,0.0,0.0
40456326,32164,0,1.005859375,-0.03125,0.013671875,-0.017578125,0.0,0.0,0.0
40457576,32165,0,1.0078125,-0.02734375,0.017578125,-0.009765625,0.0,0.0,0.0
40458827,32166,0,1.01953125,-0.03515625,0.0078125,-0.02734375,0.0,0.0,0.0
40460077,32167,0,0.998046875,-0.03125,0.009765625,-0.021484375,0.0,0.0,0.0
40461327,32168,0,1.005859375,-0.03125,0.009765625,-0.021484375,0.0,0.0,0.0
40462578,32169,0,1.005859375,-0.03125,0.0078125,-0.0234375,0.0,0.0,0.0
40463829,32170,0,1.001953125,-0.033203125,0.013671875,-0.01953125,0.0,0.0,0.0
40465080,32171,0,1.0,-0.033203125,0.009765625,-0.0234375,0.0,0.0,0.0
40466332,32172,0,1.001953125,-0.033203125,0.0078125,-0.025390625,0.0,0.0,0.0
40467582,32173,0,1.005859375,-0.03515625,0.013671875,-0.021484375,0.0,0.0,0.0
40468834,32174,0,1.00390625,-0.03515625,0.017578125,-0.017578125,0.0,0.0,0.0
40470085,32175,0,1.00390625,-0.03515625,0.005859375,-0.029296875,0.0,0.0,0.0
40471335,32176,0,1.00390625,-0.03515625,0.0078125,-0.02734375,0.0,0.0,0.0
40472586,32177,0,1.00390625,-0.033203125,0.013671875,-0.01953125,0.0,0.0,0.0
40473838,32178,0,1.0,-0.033203125,0.009765625,-0.0234375,0.0,0.0,0.0
40475088,32179,0,0.998046875,-0.029296875,0.017578125,-0.01171875,0.0,0.0,0.0
40476338,32180,0,1.001953125,-0.02734375,0.013671875,-0.013671875,0.0,0.0,0.0
40477589,32181,0,1.0078125,-0.037109375,0.001953125,-0.03515625,0.0,0.0,0.0
40478839,32182,0,1.0,-0.03125,0.005859375,-0.025390625,0.0,0.0,0.0
40480091,32183,0,1.01171875,-0.03515625,0.001953125,-0.033203125,0.0,0.0,0.0
40481341,32184,0,1.009765625,-0.033203125,0.00390625,-0.029296875,0.0,0.0,0.0
40482592,32185,0,1.013671875,-0.03125,0.009765625,-0.021484375,0.0,0.0,0.0
40483844,32186,0,0.994140625,-0.03515625,0.005859375,-0.029296875,0.0,0.0,0.0
40485094,32187,0,1.005859375,-0.03125,0.005859375,-0.025390625,0.0,0.0,0.0
40486344,32188,0,1.00390625,-0.03125,0.01171875,-0.01953125,0.0,0.0,0.0
40487595,32189,0,1.00390625,-0.03125,0.005859375,-0.025390625,0.0,0.0,0.0
40488846,32190,0,1.00390625,-0.03515625,0.00390625,-0.03125,0.0,0.0,0.0
40490096,32191,0,1.001953125,-0.03125,0.005859375,-0.025390625,0.0,0.0,0.0
40491346,32192,0,1.001953125,-0.033203125,0.00390625,-0.029296875,0.0,0.0,0.0
40492597,32193,0,1.00390625,-0.03125,0.01171875,-0.01953125,0.0,0.0,0.0
40493847,32194,0,0.998046875,-0.03515625,0.009765625,-0.025390625,0.0,0.0,0.0
40495097,32195,0,1.0078125,-0.033203125,0.0078125,-0.025390625,0.0,0.0,0.0
40496349,32196,0,1.0,-0.03515625,0.009765625,-0.025390625,0.0,0.0,0.0
40497599,32197,0,1.001953125,-0.033203125,0.0078125,-0.025390625,0.0,0.0,0.0
40498850,32198,0,1.00390625,-0.03515625,0.005859375,-0.029296875,0.0,0.0,0.0
40500101,32199,0,1.0078125,-0.03515625,0.015625,-0.01953125,0.0,0.0,0.0
40501351,32200,0,1.009765625,-0.033203125,0.009765625,-0.0234375,0.0,0.0,0.0
40502602,32201,0,1.0078125,-0.03515625,0.01171875,-0.0234375,0.0,0.0,0.0
40503853,32202,0,1.001953125,-0.037109375,0.005859375,-0.03125,0.0,0.0,0.0
40505103,32203,0,1.001953125,-0.033203125,0.00390625,-0.029296875,0.0,0.0,0.0
40506355,32204,0,1.001953125,-0.033203125,0.009765625,-0.0234375,0.0,0.0,0.0
40507606,32205,0,1.0078125,-0.033203125,0.017578125,-0.015625,0.0,0.0,0.0
40508856,32206,0,0.998046875,-0.02734375,0.01171875,-0.015625,0.0,0.0,0.0
40510108,32207,0,1.00390625,-0.033203125,0.013671875,-0.01953125,0.0,0.0,0.0
40511359,32208,0,1.009765625,-0.02734375,0.017578125,-0.009765625,0.0,0.0,0.0
40512610,32209,0,1.0,-0.03125,0.015625,-0.015625,0.0,0.0,0.0
40513860,32210,0,1.001953125,-0.029296875,0.0078125,-0.021484375,0.0,0.0,0.0
40515110,32211,0,1.0078125,-0.033203125,0.005859375,-0.02734375,0.0,0.0,0.0
40516362,32212,0,1.00390625,-0.0390625,0.015625,-0.0234375,0.0,0.0,0.0
40517614,32213,0,1.0078125,-0.03515625,0.00390625,-0.03125,0.0,0.0,0.0
40518865,32214,0,1.00390625,-0.037109375,0.00390625,-0.033203125,0.0,0.0,0.0
40520115,32215,0,1.0078125,-0.03125,0.0078125,-0.0234375,0.0,0.0,0.0
40521366,32216,0,1.0078125,-0.03125,0.00390625,-0.02734375,0.0,0.0,0.0
40522616,32217,0,1.0078125,-0.033203125,0.005859375,-0.02734375,0.0,0.0,0.0
40523867,32218,0,1.001953125,-0.033203125,0.009765625,-0.0234375,0.0,0.0,0.0
40525118,32219,0,1.001953125,-0.03515625,0.009765625,-0.025390625,0.0,0.0,0.0
40526368,32220,0,1.00390625,-0.03125,0.0078125,-0.0234375,0.0,0.0,0.0
40527619,32221,0,1.001953125,-0.03515625,0.00390625,-0.03125,0.0,0.0,0.0
40528871,32222,0,1.0,-0.033203125,0.005859375,-0.02734375,0.0,0.0,0.0
40530121,32223,0,1.0078125,-0.033203125,0.0078125,-0.025390625,0.0,0.0,0.0
40531371,32224,0,1.0,-0.03125,0.015625,-0.015625,0.0,0.0,0.0
40532623,32225,0,0.994140625,-0.037109375,0.009765625,-0.02734375,0.0,0.0,0.0
40533873,32226,0,1.009765625,-0.02734375,0.01953125,-0.0078125,0.0,0.0,0.0
40535124,32227,0,1.00390625,-0.03125,0.009765625,-0.021484375,0.0,0.0,0.0
40536376,32228,0,0.994140625,-0.03515625,0.00390625,-0.03125,0.0,0.0,0.0
40537626,32229,0,1.001953125,-0.03515625,0.009765625,-0.025390625,0.0,0.0,0.0
40538877,32230,0,1.005859375,-0.03515625,0.009765625,-0.025390625,0.0,0.0,0.0
40540127,32231,0,1.00390625,-0.03125,0.0078125,-0.0234375,0.0,0.0,0.0
40541377,32232,0,1.005859375,-0.02734375,0.009765625,-0.017578125,0.0,0.0,0.0
40542629,32233,0,1.0078125,-0.03125,0.00390625,-0.02734375,0.0,0.0,0.0
40543879,32234,0,1.0,-0.033203125,0.005859375,-0.02734375,0.0,0.0,0.0
40545130,32235,0,1.00390625,-0.03515625,0.005859375,-0.029296875,0.0,0.0,0.0
40546381,32236,0,1.0078125,-0.033203125,0.005859375,-0.02734375,0.0,0.0,0.0
40547631,32237,0,1.001953125,-0.037109375,0.0078125,-0.029296875,0.0,0.0,0.0
40548883,32238,0,1.0078125,-0.03125,0.01171875,-0.01953125,0.0,0.0,0.0
40550134,32239,0,1.0,-0.03125,0.0,-0.03125,0.0,0.0,0.0
40551384,32240,0,1.005859375,-0.03515625,0.001953125,-0.033203125,0.0,0.0,0.0
40552635,32241,0,1.005859375,-0.03125,0.0078125,-0.0234375,0.0,0.0,0.0
40553887,32242,0,1.0078125,-0.03515625,0.01171875,-0.0234375,0.0,0.0,0.0
40555137,32243,0,1.00390625,-0.037109375,0.017578125,-0.01953125,0.0,0.0,0.0
40556388,32244,0,1.0,-0.03125,0.025390625,-0.005859375,0.0,0.0,0.0
40557639,32245,0,1.001953125,-0.033203125,0.0078125,-0.025390625,0.0,0.0,0.0
40558889,32246,0,1.015625,-0.03125,0.017578125,-0.013671875,0.0,0.0,0.0
40560140,32247,0,1.00390625,-0.03515625,0.015625,-0.01953125,0.0,0.0,0.0
40561392,32248,0,1.0,-0.033203125,0.0078125,-0.025390625,0.0,0.0,0.0
40562642,32249,0,1.0078125,-0.029296875,0.01953125,-0.009765625,0.0,0.0,0.0
40563894,32250,0,0.99609375,-0.029296875,0.015625,-0.013671875,0.0,0.0,0.0
40565145,32251,0,1.001953125,-0.03515625,0.009765625,-0.025390625,0.0,0.0,0.0
40566396,32252,0,1.005859375,-0.03515625,0.013671875,-0.021484375,0.0,0.0,0.0
40567647,32253,0,1.005859375,-0.033203125,0.017578125,-0.015625,0.0,0.0,0.0
40568899,32254,0,1.00390625,-0.03125,0.01171875,-0.01953125,0.0,0.0,0.0
40570150,32255,0,1.00390625,-0.029296875,0.01171875,-0.017578125,0.0,0.0,0.0
40571400,32256,0,1.001953125,-0.033203125,0.01171875,-0.021484375,0.0,0.0,0.0
40572652,32257,0,1.0078125,-0.033203125,0.00390625,-0.029296875,0.0,0.0,0.0
40573902,32258,0,1.005859375,-0.03125,0.00390625,-0.02734375,0.0,0.0,0.0
40575152,32259,0,1.001953125,-0.03125,0.013671875,-0.017578125,0.0,0.0,0.0
40576402,32260,0,1.00390625,-0.03125,0.015625,-0.015625,0.0,0.0,0.0
40577653,32261,0,1.00390625,-0.02734375,0.00390625,-0.0234375,0.0,0.0,0.0
40578904,32262,0,0.99609375,-0.03125,0.015625,-0.015625,0.0,0.0,0.0
40580154,32263,0,1.005859375,-0.03515625,0.01171875,-0.0234375,0.0,0.0,0.0
40581406,32264,0,1.001953125,-0.03515625,0.013671875,-0.021484375,0.0,0.0,0.0
40582657,32265,0,1.0078125,-0.033203125,0.015625,-0.017578125,0.0,0.0,0.0
40583907,32266,0,1.00390625,-0.037109375,0.0,-0.037109375,0.0,0.0,0.0
40585158,32267,0,1.005859375,-0.0390625,0.001953125,-0.037109375,0.0,0.0,0.0
40586408,32268,0,1.001953125,-0.033203125,0.0078125,-0.025390625,0.0,0.0,0.0
40587659,32269,0,1.005859375,-0.033203125,0.005859375,-0.02734375,0.0,0.0,0.0
40588910,32270,0,1.001953125,-0.033203125,0.01171875,-0.021484375,0.0,0.0,0.0
40590160,32271,0,0.998046875,-0.033203125,0.01171875,-0.021484375,0.0,0.0,0.0
40591410,32272,0,1.00390625,-0.037109375,0.01171875,-0.025390625,0.0,0.0,0.0
40592662,32273,0,1.001953125,-0.03125,0.017578125,-0.013671875,0.0,0.0,0.0
40593912,32274,0,1.005859375,-0.03125,0.0078125,-0.0234375,0.0,0.0,0.0
40595163,32275,0,1.00390625,-0.029296875,0.021484375,-0.0078125,0.0,0.0,0.0
40596413,32276,0,1.0078125,-0.033203125,0.015625,-0.017578125,0.0,0.0,0.0
40597664,32277,0,0.99609375,-0.03515625,0.01171875,-0.0234375,0.0,0.0,0.0
40598915,32278,0,1.009765625,-0.03125,0.00390625,-0.02734375,0.0,0.0,0.0
40600167,32279,0,1.00390625,-0.02734375,0.009765625,-0.017578125,0.0,0.0,0.0
40601417,32280,0,1.005859375,-0.029296875,0.013671875,-0.015625,0.0,0.0,0.0
40602668,32281,0,1.001953125,-0.03515625,0.01171875,-0.0234375,0.0,0.0,0.0
40603920,32282,0,1.0,-0.03125,0.013671875,-0.017578125,0.0,0.0,0.0
40605171,32283,0,1.0078125,-0.03515625,0.0078125,-0.02734375,0.0,0.0,0.0
40606422,32284,0,1.0,-0.033203125,0.009765625,-0.0234375,0.0,0.0,0.0
40607674,32285,0,1.009765625,-0.03515625,0.0078125,-0.02734375,0.0,0.0,0.0
40608924,32286,0,1.00390625,-0.037109375,0.013671875,-0.0234375,0.0,0.0,0.0
40610175,32287,0,1.001953125,-0.03515625,0.00390625,-0.03125,0.0,0.0,0.0
40611426,32288,0,1.015625,-0.037109375,0.009765625,-0.02734375,0.0,0.0,0.0
40612677,32289,0,1.001953125,-0.033203125,0.005859375,-0.02734375,0.0,0.0,0.0
40613928,32290,0,0.99609375,-0.037109375,0.01171875,-0.025390625,0.0,0.0,0.0
40615179,32291,0,1.005859375,-0.03125,0.009765625,-0.021484375,0.0,0.0,0.0
40616431,32292,0,1.001953125,-0.037109375,0.005859375,-0.03125,0.0,0.0,0.0
40617681,32293,0,1.0078125,-0.033203125,0.009765625,-0.0234375,0.0,0.0,0.0
40618932,32294,0,1.0078125,-0.033203125,0.005859375,-0.02734375,0.0,0.0,0.0
40620182,32295,0,1.0,-0.029296875,0.009765625,-0.01953125,0.0,0.0,0.0
40621432,32296,0,1.001953125,-0.033203125,0.013671875,-0.01953125,0.0,0.0,0.0
40622684,32297,0,1.001953125,-0.03515625,0.0078125,-0.02734375,0.0,0.0,0.0
40623934,32298,0,1.00390625,-0.033203125,0.013671875,-0.01953125,0.0,0.0,0.0
40625185,32299,0,1.005859375,-0.029296875,0.005859375,-0.0234375,0.0,0.0,0.0
40626436,32300,0,1.0078125,-0.03125,0.013671875,-0.017578125,0.0,0.0,0.0
40627687,32301,0,1.0,-0.03125,0.009765625,-0.021484375,0.0,0.0,0.0
40628937,32302,0,1.001953125,-0.03515625,0.001953125,-0.033203125,0.0,0.0,0.0
40630187,32303,0,1.005859375,-0.03125,0.0078125,-0.0234375,0.0,0.0,0.0
40631439,32304,0,1.005859375,-0.03125,0.009765625,-0.021484375,0.0,0.0,0.0
40632690,32305,0,1.005859375,-0.03125,0.013671875,-0.017578125,0.0,0.0,0.0
40633940,32306,0,1.00390625,-0.029296875,0.015625,-0.013671875,0.0,0.0,0.0
40635192,32307,0,1.0,-0.03515625,0.0078125,-0.02734375,0.0,0.0,0.0
40636443,32308,0,1.00390625,-0.03515625,0.01171875,-0.0234375,0.0,0.0,0.0
40637694,32309,0,0.9921875,-0.02734375,0.013671875,-0.013671875,0.0,0.0,0.0
40638944,32310,0,1.001953125,-0.03515625,0.0,-0.03515625,0.0,0.0,0.0
40640194,32311,0,1.0078125,-0.0390625,0.009765625,-0.029296875,0.0,0.0,0.0
40641445,32312,0,1.00390625,-0.03515625,0.005859375,-0.029296875,0.0,0.0,0.0
40642697,32313,0,1.0078125,-0.037109375,0.009765625,-0.02734375,0.0,0.0,0.0
40643947,32314,0,1.001953125,-0.033203125,0.013671875,-0.01953125,0.0,0.0,0.0
40645199,32315,0,1.001953125,-0.033203125,0.01171875,-0.021484375,0.0,0.0,0.0
40646449,32316,0,1.001953125,-0.033203125,0.013671875,-0.01953125,0.0,0.0,0.0
40647701,32317,0,1.005859375,-0.03515625,0.0078125,-0.02734375,0.0,0.0,0.0
40648951,32318,0,1.00390625,-0.033203125,0.009765625,-0.0234375,0.0,0.0,0.0
40650202,32319,0,1.00390625,-0.033203125,0.0078125,-0.025390625,0.0,0.0,0.0
40651454,32320,0,1.0078125,-0.033203125,0.0078125,-0.025390625,0.0,0.0,0.0
40652704,32321,0,1.00390625,-0.03515625,0.013671875,-0.021484375,0.0,0.0,0.0
40653955,32322,0,1.0,-0.03125,0.009765625,-0.021484375,0.0,0.0,0.0
40655206,32323,0,1.005859375,-0.03125,0.01171875,-0.01953125,0.0,0.0,0.0
40656457,32324,0,1.001953125,-0.029296875,0.00390625,-0.025390625,0.0,0.0,0.0
40657708,32325,0,1.00390625,-0.033203125,0.009765625,-0.0234375,0.0,0.0,0.0
40658959,32326,0,1.005859375,-0.03515625,0.009765625,-0.025390625,0.0,0.0,0.0
40660211,32327,0,1.01171875,-0.03515625,0.015625,-0.01953125,0.0,0.0,0.0
40661463,32328,0,1.001953125,-0.025390625,0.001953125,-0.0234375,0.0,0.0,0.0
40662713,32329,0,1.0,-0.0390625,0.001953125,-0.037109375,0.0,0.0,0.0
40663965,32330,0,1.009765625,-0.029296875,0.005859375,-0.0234375,0.0,0.0,0.0
40665215,32331,0,1.00390625,-0.03515625,0.013671875,-0.021484375,0.0,0.0,0.0
40666466,32332,0,0.998046875,-0.033203125,0.005859375,-0.02734375,0.0,0.0,0.0
40667716,32333,0,1.005859375,-0.03515625,0.01171875,-0.0234375,0.0,0.0,0.0
40668966,32334,0,1.005859375,-0.037109375,0.00390625,-0.033203125,0.0,0.0,0.0
40670216,32335,0,1.001953125,-0.033203125,0.01171875,-0.021484375,0.0,0.0,0.0
40671468,32336,0,0.99609375,-0.03125,0.0078125,-0.0234375,0.0,0.0,0.0
40672719,32337,0,1.00390625,-0.03515625,0.01171875,-0.0234375,0.0,0.0,0.0
40673969,32338,0,0.998046875,-0.033203125,0.0078125,-0.025390625,0.0,0.0,0.0
40675221,32339,0,0.998046875,-0.02734375,0.009765625,-0.017578125,0.0,0.0,0.0
40676471,32340,0,1.00390625,-0.03125,0.005859375,-0.025390625,0.0,0.0,0.0
40677723,32341,0,1.009765625,-0.033203125,0.01171875,-0.021484375,0.0,0.0,0.0
40678973,32342,0,1.0078125,-0.033203125,0.0078125,-0.025390625,0.0,0.0,0.0
40680225,32343,0,1.0078125,-0.033203125,0.0078125,-0.025390625,0.0,0.0,0.0
40681476,32344,0,1.001953125,-0.037109375,0.0078125,-0.029296875,0.0,0.0,0.0
40682727,32345,0,1.0,-0.033203125,0.005859375,-0.02734375,0.0,0.0,0.0
40683977,32346,0,1.005859375,-0.029296875,0.00390625,-0.025390625,0.0,0.0,0.0
40685228,32347,0,1.001953125,-0.037109375,0.009765625,-0.02734375,0.0,0.0,0.0
40686479,32348,0,1.0,-0.02734375,0.01171875,-0.015625,0.0,0.0,0.0
40687730,32349,0,1.001953125,-0.03515625,0.0078125,-0.02734375,0.0,0.0,0.0
40688981,32350,0,1.00390625,-0.03125,0.013671875,-0.017578125,0.0,0.0,0.0
40690233,32351,0,1.00390625,-0.033203125,0.01171875,-0.021484375,0.0,0.0,0.0
40691484,32352,0,1.009765625,-0.03125,0.005859375,-0.025390625,0.0,0.0,0.0
40692734,32353,0,1.001953125,-0.029296875,0.0,-0.029296875,0.0,0.0,0.0
40693984,32354,0,0.998046875,-0.033203125,0.013671875,-0.01953125,0.0,0.0,0.0
40695235,32355,0,1.0078125,-0.033203125,0.01171875,-0.021484375,0.0,0.0,0.0
40696486,32356,0,1.0078125,-0.029296875,0.009765625,-0.01953125,0.0,0.0,0.0
40697737,32357,0,1.005859375,-0.03125,0.009765625,-0.021484375,0.0,0.0,0.0
40698987,32358,0,1.001953125,-0.029296875,0.0078125,-0.021484375,0.0,0.0,0.0
40700238,32359,0,1.005859375,-0.033203125,0.009765625,-0.0234375,0.0,0.0,0.0
40701489,32360,0,1.0078125,-0.033203125,0.013671875,-0.01953125,0.0,0.0,0.0
40702740,32361,0,1.001953125,-0.033203125,0.009765625,-0.0234375,0.0,0.0,0.0
40703992,32362,0,1.009765625,-0.037109375,0.0078125,-0.029296875,0.0,0.0,0.0
40705242,32363,0,1.00390625,-0.03125,0.009765625,-0.021484375,0.0,0.0,0.0
40706493,32364,0,1.0,-0.03515625,0.009765625,-0.025390625,0.0,0.0,0.0
40707744,32365,0,1.0078125,-0.033203125,0.013671875,-0.01953125,0.0,0.0,0.0
40708994,32366,0,1.0,-0.03125,0.005859375,-0.025390625,0.0,0.0,0.0
40710245,32367,0,1.00390625,-0.0390625,0.01171875,-0.02734375,0.0,0.0,0.0
40711497,32368,0,1.005859375,-0.033203125,0.00390625,-0.029296875,0.0,0.0,0.0
40712749,32369,0,1.00390625,-0.037109375,0.0078125,-0.029296875,0.0,0.0,0.0
40713999,32370,0,0.998046875,-0.02734375,0.01171875,-0.015625,0.0,0.0,0.0
40715250,32371,0,1.01171875,-0.037109375,0.009765625,-0.02734375,0.0,0.0,0.0
40716500,32372,0,1.001953125,-0.03515625,0.017578125,-0.017578125,0.0,0.0,0.0
40717752,32373,0,1.0,-0.037109375,0.0078125,-0.029296875,0.0,0.0,0.0
40719003,32374,0,1.001953125,-0.033203125,0.009765625,-0.0234375,0.0,0.0,0.0
40720254,32375,0,1.0078125,-0.037109375,0.005859375,-0.03125,0.0,0.0,0.0
40721504,32376,0,1.025390625,-0.0390625,0.015625,-0.0234375,0.0,0.0,0.0
40722756,32377,0,1.005859375,-0.03125,0.017578125,-0.013671875,0.0,0.0,0.0
40724006,32378,0,1.013671875,-0.037109375,0.009765625,-0.02734375,0.0,0.0,0.0
40725257,32379,0,1.0,-0.033203125,0.01171875,-0.021484375,0.0,0.0,0.0
40726508,32380,0,1.00390625,-0.037109375,0.0078125,-0.029296875,0.0,0.0,0.0
40727759,32381,0,1.005859375,-0.033203125,0.01171875,-0.021484375,0.0,0.0,0.0
40729009,32382,0,1.0078125,-0.03515625,0.0078125,-0.02734375,0.0,0.0,0.0
40730259,32383,0,1.005859375,-0.029296875,0.013671875,-0.015625,0.0,0.0,0.0
40731510,32384,0,1.0078125,-0.033203125,0.01953125,-0.013671875,0.0,0.0,0.0
40732762,32385,0,1.005859375,-0.037109375,0.0078125,-0.029296875,0.0,0.0,0.0
40734013,32386,0,1.005859375,-0.03515625,0.009765625,-0.025390625,0.0,0.0,0.0
40735271,32387,0,1.001953125,-0.033203125,0.0078125,-0.025390625,0.0,0.0,0.0
40736522,32388,0,1.005859375,-0.03125,0.009765625,-0.021484375,0.0,0.0,0.0
40737773,32389,0,1.0078125,-0.033203125,0.009765625,-0.0234375,0.0,0.0,0.0
40739025,32390,0,1.005859375,-0.033203125,0.013671875,-0.01953125,0.0,0.0,0.0
40740277,32391,0,1.00390625,-0.029296875,0.005859375,-0.0234375,0.0,0.0,0.0
40741528,32392,0,1.001953125,-0.03515625,0.005859375,-0.029296875,0.0,0.0,0.0
40742779,32393,0,1.001953125,-0.0390625,0.0078125,-0.03125,0.0,0.0,0.0
40744031,32394,0,1.001953125,-0.03125,0.01171875,-0.01953125,0.0,0.0,0.0
40745283,32395,0,0.998046875,-0.03125,0.01171875,-0.01953125,0.0,0.0,0.0
40746535,32396,0,1.0078125,-0.037109375,0.00390625,-0.033203125,0.0,0.0,0.0
40747786,32397,0,1.0,-0.03125,0.005859375,-0.025390625,0.0,0.0,0.0
40749036,32398,0,1.005859375,-0.03515625,0.0078125,-0.02734375,0.0,0.0,0.0
40750287,32399,0,1.00390625,-0.033203125,0.005859375,-0.02734375,0.0,0.0,0.0
40751537,32400,0,1.0,-0.029296875,0.009765625,-0.01953125,0.0,0.0,0.0
40752787,32401,0,0.998046875,-0.03125,0.01171875,-0.01953125,0.0,0.0,0.0
40754038,32402,0,1.00390625,-0.033203125,0.013671875,-0.01953125,0.0,0.0,0.0
40755289,32403,0,1.001953125,-0.033203125,0.0078125,-0.025390625,0.0,0.0,0.0
40756539,32404,0,1.00390625,-0.03125,0.0078125,-0.0234375,0.0,0.0,0.0
40757790,32405,0,1.0078125,-0.02734375,0.01171875,-0.015625,0.0,0.0,0.0
40759042,32406,0,1.005859375,-0.03515625,0.005859375,-0.029296875,0.0,0.0,0.0
