t_us,frame_id,sensor_id,accX,accY,accZ,acc_sum_YZ,magX,magY,magZ
731515359,584614,0,1.005859375,-0.0234375,0.013671875,-0.009765625,0.0,0.0,0.0
731516610,584615,0,1.009765625,-0.03125,0.017578125,-0.013671875,0.0,0.0,0.0
731517860,584616,0,1.0078125,-0.017578125,0.021484375,0.00390625,0.0,0.0,0.0
731519110,584617,0,0.99609375,-0.0234375,0.025390625,0.001953125,0.0,0.0,0.0
731520360,584618,0,1.009765625,-0.01953125,0.021484375,0.001953125,0.0,0.0,0.0
731521611,584619,0,1.005859375,-0.03125,0.029296875,-0.001953125,0.0,0.0,0.0
731522862,584620,0,1.00390625,-0.021484375,0.021484375,0.0,0.0,0.0,0.0
731524114,584621,0,1.01171875,-0.025390625,0.01953125,-0.005859375,0.0,0.0,0.0
731525365,584622,0,1.01953125,-0.029296875,0.021484375,-0.0078125,0.0,0.0,0.0
731526616,584623,0,1.0078125,-0.0234375,0.025390625,0.001953125,0.0,0.0,0.0
731527867,584624,0,1.001953125,-0.0234375,0.021484375,-0.001953125,0.0,0.0,0.0
731529117,584625,0,1.005859375,-0.033203125,0.0234375,-0.009765625,0.0,0.0,0.0
731530367,584626,0,1.001953125,-0.02734375,0.01953125,-0.0078125,0.0,0.0,0.0
731531618,584627,0,1.0078125,-0.03125,0.025390625,-0.005859375,0.0,0.0,0.0
731532868,584628,0,1.0,-0.03125,0.0234375,-0.0078125,0.0,0.0,0.0
731534120,584629,0,1.0078125,-0.029296875,0.01171875,-0.017578125,0.0,0.0,0.0
731535371,584630,0,1.001953125,-0.029296875,0.01953125,-0.009765625,0.0,0.0,0.0
731536621,584631,0,1.005859375,-0.03125,0.015625,-0.015625,0.0,0.0,0.0
731537873,584632,0,1.0078125,-0.0234375,0.01953125,-0.00390625,0.0,0.0,0.0
731539123,584633,0,1.009765625,-0.0234375,0.01953125,-0.00390625,0.0,0.0,0.0
731540373,584634,0,1.00390625,-0.021484375,0.0234375,0.001953125,0.0,0.0,0.0
731541623,584635,0,1.005859375,-0.0234375,0.0234375,0.0,0.0,0.0,0.0
731542873,584636,0,1.001953125,-0.033203125,0.015625,-0.017578125,0.0,0.0,0.0
731544125,584637,0,1.00390625,-0.03125,0.01953125,-0.01171875,0.0,0.0,0.0
731545376,584638,0,1.001953125,-0.033203125,0.021484375,-0.01171875,0.0,0.0,0.0
731546626,584639,0,1.0,-0.029296875,0.01953125,-0.009765625,0.0,0.0,0.0
731547877,584640,0,1.009765625,-0.037109375,0.01953125,-0.017578125,0.0,0.0,0.0
731549128,584641,0,1.00390625,-0.033203125,0.013671875,-0.01953125,0.0,0.0,0.0
731550378,584642,0,0.99609375,-0.029296875,0.01953125,-0.009765625,0.0,0.0,0.0
731551629,584643,0,1.001953125,-0.029296875,0.021484375,-0.0078125,0.0,0.0,0.0
731552880,584644,0,1.005859375,-0.033203125,0.0234375,-0.009765625,0.0,0.0,0.0
731554131,584645,0,1.0078125,-0.029296875,0.0234375,-0.005859375,0.0,0.0,0.0
731555382,584646,0,1.005859375,-0.03125,0.01953125,-0.01171875,0.0,0.0,0.0
731556632,584647,0,1.00390625,-0.03515625,0.0234375,-0.01171875,0.0,0.0,0.0
731557883,584648,0,1.001953125,-0.03125,0.01953125,-0.01171875,0.0,0.0,0.0
731559134,584649,0,0.998046875,-0.03125,0.0234375,-0.0078125,0.0,0.0,0.0
731560384,584650,0,1.0078125,-0.029296875,0.029296875,0.0,0.0,0.0,0.0
731561636,584651,0,1.00390625,-0.021484375,0.009765625,-0.01171875,0.0,0.0,0.0
731562886,584652,0,1.001953125,-0.02734375,0.021484375,-0.005859375,0.0,0.0,0.0
731564137,584653,0,1.009765625,-0.025390625,0.025390625,0.0,0.0,0.0,0.0
731565388,584654,0,1.009765625,-0.02734375,0.0234375,-0.00390625,0.0,0.0,0.0
731566639,584655,0,1.01171875,-0.025390625,0.021484375,-0.00390625,0.0,0.0,0.0
731567889,584656,0,1.001953125,-0.033203125,0.013671875,-0.01953125,0.0,0.0,0.0
731569140,584657,0,0.9921875,-0.033203125,0.021484375,-0.01171875,0.0,0.0,0.0
731570392,584658,0,1.009765625,-0.029296875,0.021484375,-0.0078125,0.0,0.0,0.0
731571642,584659,0,1.0,-0.033203125,0.01953125,-0.013671875,0.0,0.0,0.0
731572894,584660,0,1.0078125,-0.021484375,0.0234375,0.001953125,0.0,0.0,0.0
731574145,584661,0,0.99609375,-0.02734375,0.017578125,-0.009765625,0.0,0.0,0.0
731575396,584662,0,1.001953125,-0.03125,0.017578125,-0.013671875,0.0,0.0,0.0
731576648,584663,0,0.98828125,-0.03125,0.01953125,-0.01171875,0.0,0.0,0.0
731577899,584664,0,0.99609375,-0.03125,0.01953125,-0.01171875,0.0,0.0,0.0
731579150,584665,0,1.0078125,-0.03125,0.017578125,-0.013671875,0.0,0.0,0.0
731580400,584666,0,1.0,-0.033203125,0.015625,-0.017578125,0.0,0.0,0.0
731581651,584667,0,1.00390625,-0.02734375,0.021484375,-0.005859375,0.0,0.0,0.0
731582902,584668,0,1.001953125,-0.02734375,0.0234375,-0.00390625,0.0,0.0,0.0
731584152,584669,0,0.998046875,-0.029296875,0.015625,-0.013671875,0.0,0.0,0.0
731585402,584670,0,1.0078125,-0.03125,0.0234375,-0.0078125,0.0,0.0,0.0
731586654,584671,0,1.005859375,-0.029296875,0.0234375,-0.005859375,0.0,0.0,0.0
731587904,584672,0,1.0078125,-0.02734375,0.017578125,-0.009765625,0.0,0.0,0.0
731589154,584673,0,1.00390625,-0.029296875,0.01953125,-0.009765625,0.0,0.0,0.0
731590405,584674,0,1.0,-0.03125,0.021484375,-0.009765625,0.0,0.0,0.0
731591655,584675,0,1.001953125,-0.029296875,0.025390625,-0.00390625,0.0,0.0,0.0
731592906,584676,0,1.0,-0.02734375,0.015625,-0.01171875,0.0,0.0,0.0
731594157,584677,0,1.00390625,-0.03125,0.0234375,-0.0078125,0.0,0.0,0.0
731595408,584678,0,0.9921875,-0.033203125,0.015625,-0.017578125,0.0,0.0,0.0
731596659,584679,0,0.994140625,-0.03515625,0.01953125,-0.015625,0.0,0.0,0.0
731597911,584680,0,1.0,-0.0390625,0.009765625,-0.029296875,0.0,0.0,0.0
731599162,584681,0,1.001953125,-0.02734375,0.015625,-0.01171875,0.0,0.0,0.0
731600414,584682,0,0.998046875,-0.033203125,0.021484375,-0.01171875,0.0,0.0,0.0
731601664,584683,0,1.009765625,-0.025390625,0.017578125,-0.0078125,0.0,0.0,0.0
731602916,584684,0,1.00390625,-0.033203125,0.01953125,-0.013671875,0.0,0.0,0.0
731604167,584685,0,1.0,-0.033203125,0.0234375,-0.009765625,0.0,0.0,0.0
731605417,584686,0,1.00390625,-0.029296875,0.021484375,-0.0078125,0.0,0.0,0.0
731606668,584687,0,1.0,-0.03515625,0.015625,-0.01953125,0.0,0.0,0.0
731607919,584688,0,1.00390625,-0.03125,0.017578125,-0.013671875,0.0,0.0,0.0
731609170,584689,0,1.0078125,-0.03515625,0.017578125,-0.017578125,0.0,0.0,0.0
731610421,584690,0,1.005859375,-0.029296875,0.021484375,-0.0078125,0.0,0.0,0.0
731611672,584691,0,1.0,-0.03125,0.02734375,-0.00390625,0.0,0.0,0.0
731612922,584692,0,1.0,-0.02734375,0.01953125,-0.0078125,0.0,0.0,0.0
731614173,584693,0,1.001953125,-0.03515625,0.015625,-0.01953125,0.0,0.0,0.0
731615425,584694,0,1.0078125,-0.029296875,0.013671875,-0.015625,0.0,0.0,0.0
731616675,584695,0,1.00390625,-0.029296875,0.015625,-0.013671875,0.0,0.0,0.0
731617927,584696,0,1.00390625,-0.02734375,0.01953125,-0.0078125,0.0,0.0,0.0
731619177,584697,0,0.998046875,-0.025390625,0.0234375,-0.001953125,0.0,0.0,0.0
731620429,584698,0,1.005859375,-0.029296875,0.0234375,-0.005859375,0.0,0.0,0.0
731621680,584699,0,1.009765625,-0.033203125,0.021484375,-0.01171875,0.0,0.0,0.0
731622930,584700,0,1.005859375,-0.033203125,0.013671875,-0.01953125,0.0,0.0,0.0
731624180,584701,0,1.001953125,-0.0390625,0.015625,-0.0234375,0.0,0.0,0.0
731625431,584702,0,1.00390625,-0.033203125,0.0234375,-0.009765625,0.0,0.0,0.0
731626682,584703,0,1.013671875,-0.029296875,0.013671875,-0.015625,0.0,0.0,0.0
731627933,584704,0,1.0078125,-0.033203125,0.017578125,-0.015625,0.0,0.0,0.0
731629184,584705,0,1.001953125,-0.033203125,0.0234375,-0.009765625,0.0,0.0,0.0
731630434,584706,0,0.998046875,-0.02734375,0.025390625,-0.001953125,0.0,0.0,0.0
731631685,584707,0,1.00390625,-0.02734375,0.01953125,-0.0078125,0.0,0.0,0.0
731632936,584708,0,1.005859375,-0.025390625,0.021484375,-0.00390625,0.0,0.0,0.0
731634188,584709,0,1.0078125,-0.02734375,0.021484375,-0.005859375,0.0,0.0,0.0
731635439,584710,0,1.009765625,-0.029296875,0.01953125,-0.009765625,0.0,0.0,0.0
731636690,584711,0,1.009765625,-0.02734375,0.0234375,-0.00390625,0.0,0.0,0.0
731637941,584712,0,1.009765625,-0.0234375,0.025390625,0.001953125,0.0,0.0,0.0
731639192,584713,0,1.005859375,-0.0234375,0.021484375,-0.001953125,0.0,0.0,0.0
731640443,584714,0,1.00390625,-0.02734375,0.017578125,-0.009765625,0.0,0.0,0.0
731641695,584715,0,1.005859375,-0.029296875,0.01953125,-0.009765625,0.0,0.0,0.0
731642945,584716,0,1.00390625,-0.033203125,0.01953125,-0.013671875,0.0,0.0,0.0
731644195,584717,0,1.001953125,-0.033203125,0.021484375,-0.01171875,0.0,0.0,0.0
731645447,584718,0,1.005859375,-0.033203125,0.01953125,-0.013671875,0.0,0.0,0.0
731646697,584719,0,1.001953125,-0.0234375,0.021484375,-0.001953125,0.0,0.0,0.0
731647949,584720,0,0.99609375,-0.037109375,0.021484375,-0.015625,0.0,0.0,0.0
731649200,584721,0,0.990234375,-0.037109375,0.01953125,-0.017578125,0.0,0.0,0.0
731650452,584722,0,1.00390625,-0.03125,0.01953125,-0.01171875,0.0,0.0,0.0
731651702,584723,0,0.99609375,-0.025390625,0.0234375,-0.001953125,0.0,0.0,0.0
731652954,584724,0,1.0078125,-0.03125,0.0234375,-0.0078125,0.0,0.0,0.0
731654205,584725,0,0.99609375,-0.02734375,0.02734375,0.0,0.0,0.0,0.0
731655456,584726,0,1.017578125,-0.025390625,0.025390625,0.0,0.0,0.0,0.0
731656708,584727,0,1.0078125,-0.021484375,0.02734375,0.005859375,0.0,0.0,0.0
731657958,584728,0,1.009765625,-0.025390625,0.025390625,0.0,0.0,0.0,0.0
731659209,584729,0,1.009765625,-0.0234375,0.02734375,0.00390625,0.0,0.0,0.0
731660459,584730,0,1.0078125,-0.025390625,0.021484375,-0.00390625,0.0,0.0,0.0
731661710,584731,0,1.001953125,-0.029296875,0.01953125,-0.009765625,0.0,0.0,0.0
731662961,584732,0,1.0,-0.029296875,0.025390625,-0.00390625,0.0,0.0,0.0
731664212,584733,0,1.0,-0.033203125,0.021484375,-0.01171875,0.0,0.0,0.0
731665462,584734,0,0.998046875,-0.03515625,0.015625,-0.01953125,0.0,0.0,0.0
731666713,584735,0,1.001953125,-0.033203125,0.01953125,-0.013671875,0.0,0.0,0.0
731667965,584736,0,1.0078125,-0.03515625,0.015625,-0.01953125,0.0,0.0,0.0
731669216,584737,0,1.00390625,-0.029296875,0.01953125,-0.009765625,0.0,0.0,0.0
731670468,584738,0,1.001953125,-0.033203125,0.021484375,-0.01171875,0.0,0.0,0.0
731671719,584739,0,1.0,-0.025390625,0.025390625,0.0,0.0,0.0,0.0
731672969,584740,0,0.998046875,-0.025390625,0.021484375,-0.00390625,0.0,0.0,0.0
731674221,584741,0,0.998046875,-0.033203125,0.01953125,-0.013671875,0.0,0.0,0.0
731675471,584742,0,1.0078125,-0.03125,0.02734375,-0.00390625,0.0,0.0,0.0
731676721,584743,0,1.0078125,-0.03125,0.021484375,-0.009765625,0.0,0.0,0.0
731677972,584744,0,1.021484375,-0.03515625,0.01953125,-0.015625,0.0,0.0,0.0
731679224,584745,0,1.01171875,-0.01953125,0.02734375,0.0078125,0.0,0.0,0.0
731680474,584746,0,1.005859375,-0.029296875,0.017578125,-0.01171875,0.0,0.0,0.0
731681724,584747,0,1.0078125,-0.02734375,0.025390625,-0.001953125,0.0,0.0,0.0
731682976,584748,0,1.005859375,-0.025390625,0.021484375,-0.00390625,0.0,0.0,0.0
731684226,584749,0,1.0078125,-0.029296875,0.017578125,-0.01171875,0.0,0.0,0.0
731685476,584750,0,1.0,-0.03125,0.025390625,-0.005859375,0.0,0.0,0.0
731686728,584751,0,1.005859375,-0.033203125,0.021484375,-0.01171875,0.0,0.0,0.0
731687978,584752,0,1.005859375,-0.033203125,0.01953125,-0.013671875,0.0,0.0,0.0
731689230,584753,0,1.001953125,-0.03515625,0.01953125,-0.015625,0.0,0.0,0.0
731690481,584754,0,1.001953125,-0.03125,0.017578125,-0.013671875,0.0,0.0,0.0
731691732,584755,0,1.001953125,-0.03515625,0.017578125,-0.017578125,0.0,0.0,0.0
731692983,584756,0,1.00390625,-0.03125,0.021484375,-0.009765625,0.0,0.0,0.0
731694235,584757,0,1.0,-0.03125,0.021484375,-0.009765625,0.0,0.0,0.0
731695485,584758,0,1.00390625,-0.03125,0.021484375,-0.009765625,0.0,0.0,0.0
731696736,584759,0,1.00390625,-0.033203125,0.021484375,-0.01171875,0.0,0.0,0.0
731697987,584760,0,1.005859375,-0.03125,0.021484375,-0.009765625,0.0,0.0,0.0
731699237,584761,0,1.009765625,-0.029296875,0.0234375,-0.005859375,0.0,0.0,0.0
731700488,584762,0,1.0,-0.03515625,0.01953125,-0.015625,0.0,0.0,0.0
731701738,584763,0,1.0,-0.037109375,0.021484375,-0.015625,0.0,0.0,0.0
731702989,584764,0,0.994140625,-0.025390625,0.017578125,-0.0078125,0.0,0.0,0.0
731704239,584765,0,1.0078125,-0.029296875,0.01953125,-0.009765625,0.0,0.0,0.0
731705490,584766,0,1.017578125,-0.02734375,0.017578125,-0.009765625,0.0,0.0,0.0
731706741,584767,0,1.0,-0.029296875,0.01953125,-0.009765625,0.0,0.0,0.0
731707991,584768,0,1.0078125,-0.02734375,0.01953125,-0.0078125,0.0,0.0,0.0
731709242,584769,0,1.005859375,-0.033203125,0.0234375,-0.009765625,0.0,0.0,0.0
731710493,584770,0,1.0078125,-0.029296875,0.0234375,-0.005859375,0.0,0.0,0.0
731711745,584771,0,0.99609375,-0.033203125,0.015625,-0.017578125,0.0,0.0,0.0
731712995,584772,0,0.998046875,-0.03515625,0.01953125,-0.015625,0.0,0.0,0.0
731714247,584773,0,0.998046875,-0.03515625,0.025390625,-0.009765625,0.0,0.0,0.0
731715498,584774,0,0.99609375,-0.033203125,0.021484375,-0.01171875,0.0,0.0,0.0
731716749,584775,0,1.00390625,-0.03515625,0.01953125,-0.015625,0.0,0.0,0.0
731718000,584776,0,0.99609375,-0.029296875,0.01953125,-0.009765625,0.0,0.0,0.0
731719250,584777,0,1.0078125,-0.029296875,0.021484375,-0.0078125,0.0,0.0,0.0
731720501,584778,0,1.009765625,-0.029296875,0.01953125,-0.009765625,0.0,0.0,0.0
731721752,584779,0,1.005859375,-0.025390625,0.03125,0.005859375,0.0,0.0,0.0
731723003,584780,0,1.009765625,-0.029296875,0.025390625,-0.00390625,0.0,0.0,0.0
731724254,584781,0,1.01171875,-0.021484375,0.02734375,0.005859375,0.0,0.0,0.0
731725504,584782,0,1.01171875,-0.025390625,0.021484375,-0.00390625,0.0,0.0,0.0
731726755,584783,0,1.005859375,-0.025390625,0.01953125,-0.005859375,0.0,0.0,0.0
731728006,584784,0,1.001953125,-0.029296875,0.021484375,-0.0078125,0.0,0.0,0.0
731729257,584785,0,1.005859375,-0.03515625,0.013671875,-0.021484375,0.0,0.0,0.0
731730508,584786,0,1.00390625,-0.02734375,0.017578125,-0.009765625,0.0,0.0,0.0
731731760,584787,0,1.005859375,-0.029296875,0.021484375,-0.0078125,0.0,0.0,0.0
731733010,584788,0,1.005859375,-0.03125,0.0234375,-0.0078125,0.0,0.0,0.0
731734261,584789,0,1.005859375,-0.029296875,0.021484375,-0.0078125,0.0,0.0,0.0
731735513,584790,0,1.001953125,-0.03125,0.021484375,-0.009765625,0.0,0.0,0.0
731736763,584791,0,1.005859375,-0.03515625,0.01953125,-0.015625,0.0,0.0,0.0
731738014,584792,0,1.005859375,-0.03125,0.01953125,-0.01171875,0.0,0.0,0.0
731739271,584793,0,1.009765625,-0.029296875,0.015625,-0.013671875,0.0,0.0,0.0
731740522,584794,0,1.0078125,-0.029296875,0.015625,-0.013671875,0.0,0.0,0.0
731741774,584795,0,1.001953125,-0.03125,0.015625,-0.015625,0.0,0.0,0.0
731743024,584796,0,1.00390625,-0.029296875,0.013671875,-0.015625,0.0,0.0,0.0
731744275,584797,0,1.0078125,-0.033203125,0.021484375,-0.01171875,0.0,0.0,0.0
731745527,584798,0,1.0078125,-0.03125,0.01953125,-0.01171875,0.0,0.0,0.0
731746778,584799,0,1.005859375,-0.03515625,0.01953125,-0.015625,0.0,0.0,0.0
731748028,584800,0,1.001953125,-0.025390625,0.021484375,-0.00390625,0.0,0.0,0.0
731749278,584801,0,1.00390625,-0.029296875,0.021484375,-0.0078125,0.0,0.0,0.0
731750528,584802,0,1.00390625,-0.021484375,0.025390625,0.00390625,0.0,0.0,0.0
731751780,584803,0,1.0078125,-0.025390625,0.029296875,0.00390625,0.0,0.0,0.0
731753031,584804,0,1.009765625,-0.021484375,0.0234375,0.001953125,0.0,0.0,0.0
731754282,584805,0,1.009765625,-0.029296875,0.02734375,-0.001953125,0.0,0.0,0.0
731755533,584806,0,1.0078125,-0.02734375,0.015625,-0.01171875,0.0,0.0,1.009000007343765e+24
731758034,584808,0,1.0,-0.025390625,0.01953125,-0.005859375,0.0,0.0,0.0
731759284,584809,0,1.0078125,-0.03125,0.017578125,-0.013671875,0.0,0.0,0.0
731760536,584810,0,0.98828125,-0.033203125,0.021484375,-0.01171875,0.0,0.0,0.0
731761787,584811,0,1.005859375,-0.03125,0.017578125,-0.013671875,0.0,0.0,0.0
731763038,584812,0,1.005859375,-0.03125,0.01171875,-0.01953125,0.0,0.0,0.0
731764288,584813,0,1.005859375,-0.033203125,0.021484375,-0.01171875,0.0,0.0,0.0
731765539,584814,0,1.00390625,-0.029296875,0.01953125,-0.009765625,0.0,0.0,0.0
731766790,584815,0,1.005859375,-0.02734375,0.021484375,-0.005859375,0.0,0.0,0.0
731768040,584816,0,1.0078125,-0.02734375,0.01953125,-0.0078125,0.0,0.0,0.0
731769290,584817,0,1.001953125,-0.033203125,0.01953125,-0.013671875,0.0,0.0,0.0
731770542,584818,0,1.001953125,-0.033203125,0.017578125,-0.015625,0.0,0.0,0.0
731771793,584819,0,1.0,-0.033203125,0.025390625,-0.0078125,0.0,0.0,0.0
731773044,584820,0,1.001953125,-0.02734375,0.021484375,-0.005859375,0.0,0.0,0.0
731774295,584821,0,1.005859375,-0.029296875,0.021484375,-0.0078125,0.0,0.0,0.0
731775546,584822,0,1.005859375,-0.02734375,0.01953125,-0.0078125,0.0,0.0,0.0
731776796,584823,0,1.0078125,-0.03125,0.0234375,-0.0078125,0.0,0.0,0.0
731778048,584824,0,1.0,-0.03125,0.025390625,-0.005859375,0.0,0.0,0.0
731779299,584825,0,1.013671875,-0.025390625,0.021484375,-0.00390625,0.0,0.0,0.0
731780549,584826,0,1.00390625,-0.03125,0.02734375,-0.00390625,0.0,0.0,0.0
731781801,584827,0,1.013671875,-0.029296875,0.009765625,-0.01953125,0.0,0.0,0.0
731783051,584828,0,1.005859375,-0.03515625,0.01171875,-0.0234375,0.0,0.0,0.0
731784301,584829,0,1.00390625,-0.03515625,0.015625,-0.01953125,0.0,0.0,0.0
731785552,584830,0,0.998046875,-0.03125,0.021484375,-0.009765625,0.0,0.0,0.0
731786803,584831,0,1.001953125,-0.03125,0.017578125,-0.013671875,0.0,0.0,0.0
731788054,584832,0,1.001953125,-0.037109375,0.0234375,-0.013671875,0.0,0.0,0.0
731789305,584833,0,1.001953125,-0.029296875,0.021484375,-0.0078125,0.0,0.0,0.0
731790556,584834,0,1.005859375,-0.03125,0.013671875,-0.017578125,0.0,0.0,0.0
731791807,584835,0,1.00390625,-0.0234375,0.01953125,-0.00390625,0.0,0.0,0.0
731793059,584836,0,1.00390625,-0.02734375,0.021484375,-0.005859375,0.0,0.0,0.0
731794310,584837,0,1.00390625,-0.03125,0.029296875,-0.001953125,0.0,0.0,0.0
731795560,584838,0,1.00390625,-0.025390625,0.025390625,0.0,0.0,0.0,0.0
731796810,584839,0,1.001953125,-0.025390625,0.0234375,-0.001953125,0.0,0.0,0.0
731798061,584840,0,1.01171875,-0.0234375,0.0234375,0.0,0.0,0.0,0.0
731799311,584841,0,1.00390625,-0.025390625,0.025390625,0.0,0.0,0.0,0.0
731800563,584842,0,1.0078125,-0.025390625,0.021484375,-0.00390625,0.0,0.0,0.0
731801813,584843,0,1.005859375,-0.033203125,0.029296875,-0.00390625,0.0,0.0,0.0
731803065,584844,0,0.998046875,-0.029296875,0.01953125,-0.009765625,0.0,0.0,0.0
731804316,584845,0,1.0,-0.037109375,0.01171875,-0.025390625,0.0,0.0,0.0
731805566,584846,0,1.001953125,-0.03515625,0.01953125,-0.015625,0.0,0.0,0.0
731806817,584847,0,1.005859375,-0.03515625,0.013671875,-0.021484375,0.0,0.0,0.0
731808067,584848,0,1.005859375,-0.03515625,0.01953125,-0.015625,0.0,0.0,0.0
731809317,584849,0,1.00390625,-0.03515625,0.01953125,-0.015625,0.0,0.0,0.0
731810567,584850,0,0.998046875,-0.03125,0.017578125,-0.013671875,0.0,0.0,0.0
731811818,584851,0,1.001953125,-0.033203125,0.017578125,-0.015625,0.0,0.0,0.0
731813070,584852,0,1.0,-0.03125,0.013671875,-0.017578125,0.0,0.0,0.0
731814321,584853,0,0.99609375,-0.033203125,0.015625,-0.017578125,0.0,0.0,0.0
731815571,584854,0,0.998046875,-0.03125,0.01953125,-0.01171875,0.0,0.0,0.0
731816821,584855,0,1.005859375,-0.029296875,0.01171875,-0.017578125,0.0,0.0,0.0
731818071,584856,0,1.00390625,-0.037109375,0.01953125,-0.017578125,0.0,0.0,0.0
731819322,584857,0,1.00390625,-0.03125,0.017578125,-0.013671875,0.0,0.0,0.0
731820572,584858,0,1.0078125,-0.03125,0.01953125,-0.01171875,0.0,0.0,0.0
731821823,584859,0,0.994140625,-0.03125,0.0234375,-0.0078125,0.0,0.0,0.0
731823075,584860,0,1.0,-0.029296875,0.01953125,-0.009765625,0.0,0.0,0.0
731824326,584861,0,1.0,-0.033203125,0.01953125,-0.013671875,0.0,0.0,0.0
731825577,584862,0,1.00390625,-0.037109375,0.01953125,-0.017578125,0.0,0.0,0.0
731826829,584863,0,1.00390625,-0.03515625,0.01953125,-0.015625,0.0,0.0,0.0
731828079,584864,0,1.0,-0.03125,0.01953125,-0.01171875,0.0,0.0,0.0
731829329,584865,0,0.994140625,-0.03515625,0.015625,-0.01953125,0.0,0.0,0.0
731830580,584866,0,0.99609375,-0.03125,0.021484375,-0.009765625,0.0,0.0,0.0
731831831,584867,0,0.994140625,-0.033203125,0.01953125,-0.013671875,0.0,0.0,0.0
731833082,584868,0,1.0,-0.037109375,0.021484375,-0.015625,0.0,0.0,0.0
731834333,584869,0,0.994140625,-0.0390625,0.013671875,-0.025390625,0.0,0.0,0.0
731835584,584870,0,0.99609375,-0.044921875,0.013671875,-0.03125,0.0,0.0,0.0
731836835,584871,0,0.998046875,-0.0390625,0.0078125,-0.03125,0.0,0.0,0.0
731838087,584872,0,0.990234375,-0.029296875,0.01171875,-0.017578125,0.0,0.0,0.0
731839338,584873,0,1.001953125,-0.04296875,0.017578125,-0.025390625,0.0,0.0,0.0
731840590,584874,0,1.001953125,-0.037109375,0.01171875,-0.025390625,0.0,0.0,0.0
731841841,584875,0,0.9921875,-0.03515625,0.015625,-0.01953125,0.0,0.0,0.0
731843092,584876,0,0.99609375,-0.029296875,0.0234375,-0.005859375,0.0,0.0,0.0
731844343,584877,0,0.99609375,-0.033203125,0.021484375,-0.01171875,0.0,0.0,0.0
731845595,584878,0,1.005859375,-0.03515625,0.01953125,-0.015625,0.0,0.0,0.0
731846845,584879,0,1.001953125,-0.033203125,0.013671875,-0.01953125,0.0,0.0,0.0
731848097,584880,0,1.001953125,-0.0390625,0.017578125,-0.021484375,0.0,0.0,0.0
731849348,584881,0,0.998046875,-0.03515625,0.015625,-0.01953125,0.0,0.0,0.0
731850600,584882,0,0.998046875,-0.041015625,0.017578125,-0.0234375,0.0,0.0,0.0
731851850,584883,0,0.984375,-0.0390625,0.015625,-0.0234375,0.0,0.0,0.0
731853101,584884,0,0.994140625,-0.0390625,0.013671875,-0.025390625,0.0,0.0,0.0
731854351,584885,0,1.0,-0.041015625,0.01953125,-0.021484375,0.0,0.0,0.0
731855602,584886,0,0.994140625,-0.041015625,0.01171875,-0.029296875,0.0,0.0,0.0
731856853,584887,0,0.994140625,-0.037109375,0.013671875,-0.0234375,0.0,0.0,0.0
731858104,584888,0,0.986328125,-0.04296875,0.013671875,-0.029296875,0.0,0.0,0.0
731859355,584889,0,0.9921875,-0.041015625,0.015625,-0.025390625,0.0,0.0,0.0
731860606,584890,0,0.998046875,-0.041015625,0.0078125,-0.033203125,0.0,0.0,0.0
731861857,584891,0,0.98828125,-0.037109375,0.009765625,-0.02734375,0.0,0.0,0.0
731863109,584892,0,0.994140625,-0.041015625,0.01171875,-0.029296875,0.0,0.0,0.0
731864360,584893,0,0.994140625,-0.044921875,0.01171875,-0.033203125,0.0,0.0,0.0
731865610,584894,0,0.986328125,-0.041015625,0.017578125,-0.0234375,0.0,0.0,0.0
731866861,584895,0,0.98828125,-0.044921875,0.009765625,-0.03515625,0.0,0.0,0.0
731868112,584896,0,0.98828125,-0.046875,0.005859375,-0.041015625,0.0,0.0,0.0
731869362,584897,0,0.984375,-0.056640625,0.005859375,-0.05078125,0.0,0.0,0.0
731870613,584898,0,0.978515625,-0.052734375,0.001953125,-0.05078125,0.0,0.0,0.0
731871863,584899,0,0.98828125,-0.05078125,0.001953125,-0.048828125,0.0,0.0,0.0
731873115,584900,0,0.982421875,-0.0546875,0.001953125,-0.052734375,0.0,0.0,0.0
731874366,584901,0,0.978515625,-0.05078125,0.005859375,-0.044921875,0.0,0.0,0.0
731875616,584902,0,0.982421875,-0.05078125,0.005859375,-0.044921875,0.0,0.0,0.0
731876867,584903,0,0.98046875,-0.044921875,0.00390625,-0.041015625,0.0,0.0,0.0
731878117,584904,0,0.98828125,-0.04296875,0.009765625,-0.033203125,0.0,0.0,0.0
731879367,584905,0,0.984375,-0.048828125,0.009765625,-0.0390625,0.0,0.0,0.0
731880618,584906,0,0.9921875,-0.048828125,0.009765625,-0.0390625,0.0,0.0,0.0
731881868,584907,0,0.986328125,-0.056640625,0.0078125,-0.048828125,0.0,0.0,0.0
731883120,584908,0,0.982421875,-0.0625,0.00390625,-0.05859375,0.0,0.0,0.0
731884371,584909,0,0.96875,-0.060546875,0.0,-0.060546875,0.0,0.0,0.0
731885621,584910,0,0.9765625,-0.072265625,-0.00390625,-0.076171875,0.0,0.0,0.0
731886873,584911,0,0.966796875,-0.060546875,0.001953125,-0.05859375,0.0,0.0,0.0
731888123,584912,0,0.978515625,-0.0546875,-0.00390625,-0.05859375,0.0,0.0,0.0
731889373,584913,0,0.955078125,-0.10546875,-0.00390625,-0.109375,0.0,0.0,0.0
731890623,584914,0,0.994140625,-0.033203125,-0.001953125,-0.03515625,0.0,0.0,0.0
731891873,584915,0,0.978515625,-0.150390625,0.0078125,-0.142578125,0.0,0.0,0.0
731893125,584916,0,1.01171875,-0.126953125,0.00390625,-0.123046875,0.0,0.0,0.0
731894376,584917,0,1.013671875,-0.27734375,-0.060546875,-0.337890625,0.0,0.0,0.0
731895626,584918,0,0.94140625,-0.294921875,-0.123046875,-0.41796875,0.0,0.0,0.0
731896877,584919,0,0.919921875,-0.263671875,-0.0625,-0.326171875,0.0,0.0,0.0
731898128,584920,0,0.947265625,-0.40234375,0.083984375,-0.318359375,0.0,0.0,0.0
731899378,584921,0,1.12890625,-0.603515625,0.15234375,-0.451171875,0.0,0.0,0.0
731900629,584922,0,1.357421875,-1.046875,0.044921875,-1.001953125,0.0,0.0,0.0
731901880,584923,0,1.2578125,-1.560546875,-0.345703125,-1.90625,0.0,0.0,0.0
731903131,584924,0,1.212890625,-1.005859375,-0.46484375,-1.470703125,0.0,0.0,0.0
731904382,584925,0,1.076171875,-1.25,-0.025390625,-1.275390625,0.0,0.0,0.0
731905632,584926,0,1.146484375,-1.322265625,-0.068359375,-1.390625,0.0,0.0,0.0
731906883,584927,0,0.9453125,-0.712890625,-0.064453125,-0.77734375,0.0,0.0,0.0
731908134,584928,0,0.916015625,-1.416015625,-0.138671875,-1.5546875,0.0,0.0,0.0
731909384,584929,0,0.96484375,-1.0546875,-0.23046875,-1.28515625,0.0,0.0,0.0
731910636,584930,0,0.966796875,-1.1640625,-0.197265625,-1.361328125,0.0,0.0,0.0
731911886,584931,0,0.892578125,-0.96875,-0.212890625,-1.181640625,0.0,0.0,0.0
731913137,584932,0,0.998046875,-1.044921875,-0.306640625,-1.3515625,0.0,0.0,0.0
731914388,584933,0,0.939453125,-1.005859375,-0.23828125,-1.244140625,0.0,0.0,0.0
731915639,584934,0,0.95703125,-0.857421875,-0.28125,-1.138671875,0.0,0.0,0.0
731916889,584935,0,0.9765625,-0.921875,-0.31640625,-1.23828125,0.0,0.0,0.0
731918140,584936,0,0.984375,-0.814453125,-0.302734375,-1.1171875,0.0,0.0,0.0
731919392,584937,0,1.00390625,-0.759765625,-0.2890625,-1.048828125,0.0,0.0,0.0
731920642,584938,0,1.044921875,-0.888671875,-0.3359375,-1.224609375,0.0,0.0,0.0
731921894,584939,0,1.15234375,-0.978515625,-0.48046875,-1.458984375,0.0,0.0,0.0
731923145,584940,0,1.109375,-1.107421875,-0.4296875,-1.537109375,0.0,0.0,0.0
731924396,584941,0,1.099609375,-1.033203125,-0.544921875,-1.578125,0.0,0.0,0.0
731925648,584942,0,1.16015625,-1.470703125,-0.279296875,-1.75,0.0,0.0,0.0
731926899,584943,0,1.298828125,-1.57421875,-0.384765625,-1.958984375,0.0,0.0,0.0
731928150,584944,0,1.083984375,-1.09375,-0.984375,-2.078125,0.0,0.0,0.0
731929400,584945,0,0.888671875,-1.0703125,-1.091796875,-2.162109375,0.0,0.0,0.0
731930651,584946,0,0.560546875,-0.8515625,-0.619140625,-1.470703125,0.0,0.0,0.0
731931902,584947,0,0.486328125,-0.494140625,-0.708984375,-1.203125,0.0,0.0,0.0
731933152,584948,0,0.53125,-0.0703125,-0.78125,-0.8515625,0.0,0.0,0.0
731934402,584949,0,0.771484375,0.228515625,-0.701171875,-0.47265625,0.0,0.0,0.0
731935654,584950,0,1.10546875,0.654296875,-0.310546875,0.34375,0.0,0.0,0.0
731936904,584951,0,0.857421875,0.533203125,-0.5703125,-0.037109375,0.0,0.0,0.0
731938154,584952,0,1.310546875,1.01953125,-0.443359375,0.576171875,0.0,0.0,0.0
731939405,584953,0,1.24609375,1.12890625,-0.41796875,0.7109375,0.0,0.0,0.0
731940655,584954,0,1.333984375,1.376953125,-0.255859375,1.12109375,0.0,0.0,0.0
731941906,584955,0,1.212890625,1.521484375,-0.095703125,1.42578125,0.0,0.0,0.0
731943157,584956,0,1.146484375,1.7578125,-0.0546875,1.703125,0.0,0.0,0.0
731944408,584957,0,1.037109375,1.892578125,-0.00390625,1.888671875,0.0,0.0,0.0
731945659,584958,0,0.916015625,2.009765625,0.0859375,2.095703125,0.0,0.0,0.0
731946911,584959,0,0.83984375,2.13671875,0.15625,2.29296875,0.0,0.0,0.0
731948162,584960,0,0.861328125,2.23046875,0.197265625,2.427734375,0.0,0.0,0.0
731949414,584961,0,0.90234375,2.28515625,0.263671875,2.548828125,0.0,0.0,0.0
731950664,584962,0,0.966796875,2.34375,0.34375,2.6875,0.0,0.0,0.0
731951916,584963,0,1.0625,2.353515625,0.427734375,2.78125,0.0,0.0,0.0
731953167,584964,0,1.154296875,2.345703125,0.453125,2.798828125,0.0,0.0,0.0
731954417,584965,0,1.134765625,2.33984375,0.486328125,2.826171875,0.0,0.0,0.0
731955668,584966,0,1.197265625,2.275390625,0.47265625,2.748046875,0.0,0.0,0.0
731956919,584967,0,1.1640625,2.208984375,0.46484375,2.673828125,0.0,0.0,0.0
731958170,584968,0,1.123046875,2.130859375,0.443359375,2.57421875,0.0,0.0,0.0
731959421,584969,0,1.095703125,2.0,0.41796875,2.41796875,0.0,0.0,0.0
731960672,584970,0,1.017578125,1.8828125,0.392578125,2.275390625,0.0,0.0,0.0
731961922,584971,0,0.966796875,1.755859375,0.328125,2.083984375,0.0,0.0,0.0
731963173,584972,0,0.9453125,1.599609375,0.25,1.849609375,0.0,0.0,0.0
731964425,584973,0,0.935546875,1.43359375,0.1875,1.62109375,0.0,0.0,0.0
731965675,584974,0,0.966796875,1.25,0.134765625,1.384765625,0.0,0.0,0.0
731966927,584975,0,1.005859375,1.0546875,0.09375,1.1484375,0.0,0.0,0.0
731968177,584976,0,1.044921875,0.875,0.046875,0.921875,0.0,0.0,0.0
731969429,584977,0,1.083984375,0.66015625,-0.05078125,0.609375,0.0,0.0,0.0
731970680,584978,0,1.078125,0.455078125,-0.103515625,0.3515625,0.0,0.0,0.0
731971930,584979,0,1.060546875,0.046875,-0.158203125,-0.111328125,0.0,0.0,0.0
731973180,584980,0,0.998046875,-0.15625,-0.205078125,-0.361328125,0.0,0.0,0.0
731974431,584981,0,0.962890625,-0.330078125,-0.234375,-0.564453125,0.0,0.0,0.0
731975682,584982,0,0.94140625,-0.52734375,-0.26953125,-0.796875,0.0,0.0,0.0
731976933,584983,0,0.91796875,-0.6953125,-0.279296875,-0.974609375,0.0,0.0,0.0
731978184,584984,0,0.91015625,-0.84765625,-0.29296875,-1.140625,0.0,0.0,0.0
731979434,584985,0,1.025390625,-0.884765625,-0.287109375,-1.171875,0.0,0.0,0.0
731980685,584986,0,1.046875,-0.98046875,-0.201171875,-1.181640625,0.0,0.0,0.0
731981936,584987,0,1.01171875,-1.1640625,-0.119140625,-1.283203125,0.0,0.0,0.0
731983188,584988,0,0.97265625,-1.318359375,-0.119140625,-1.4375,0.0,0.0,0.0
731984439,584989,0,1.044921875,-1.359375,-0.24609375,-1.60546875,0.0,0.0,0.0
731985690,584990,0,1.00390625,-1.451171875,-0.2734375,-1.724609375,0.0,0.0,0.0
731986941,584991,0,0.982421875,-1.505859375,-0.265625,-1.771484375,0.0,0.0,0.0
731988192,584992,0,0.970703125,-1.50390625,-0.236328125,-1.740234375,0.0,0.0,0.0
731989443,584993,0,0.953125,-1.5078125,-0.232421875,-1.740234375,0.0,0.0,0.0
731990695,584994,0,0.94140625,-1.5234375,-0.23828125,-1.76171875,0.0,0.0,0.0
731991945,584995,0,0.94140625,-1.490234375,-0.240234375,-1.73046875,0.0,0.0,0.0
731993195,584996,0,0.9453125,-1.447265625,-0.208984375,-1.65625,0.0,0.0,0.0
731994447,584997,0,0.95703125,-1.388671875,-0.205078125,-1.59375,0.0,0.0,0.0
731995697,584998,0,0.958984375,-1.302734375,-0.205078125,-1.5078125,0.0,0.0,0.0
731996949,584999,0,0.970703125,-1.236328125,-0.2109375,-1.447265625,0.0,0.0,0.0
731998200,585000,0,0.97265625,-1.130859375,-0.19921875,-1.330078125,0.0,0.0,0.0
731999452,585001,0,0.98046875,-1.0234375,-0.193359375,-1.216796875,0.0,0.0,0.0
732000702,585002,0,0.99609375,-0.8984375,-0.18359375,-1.08203125,0.0,0.0,0.0
732001954,585003,0,0.990234375,-0.783203125,-0.166015625,-0.94921875,0.0,0.0,0.0
732003205,585004,0,1.080078125,-0.564453125,-0.07421875,-0.638671875,0.0,0.0,0.0
732004456,585005,0,0.912109375,-0.57421875,-0.103515625,-0.677734375,0.0,0.0,0.0
732005708,585006,0,1.08984375,-0.337890625,-0.19140625,-0.529296875,0.0,0.0,0.0
732006958,585007,0,0.994140625,-0.2578125,-0.12890625,-0.38671875,0.0,0.0,0.0
732008209,585008,0,1.02734375,-0.12109375,-0.1328125,-0.25390625,0.0,0.0,0.0
732009459,585009,0,0.998046875,-0.015625,-0.0859375,-0.1015625,0.0,0.0,0.0
732010710,585010,0,1.005859375,0.14453125,-0.064453125,0.080078125,0.0,0.0,0.0
732011961,585011,0,1.005859375,0.25390625,-0.025390625,0.228515625,0.0,0.0,0.0
732013212,585012,0,1.001953125,0.384765625,0.009765625,0.39453125,0.0,0.0,0.0
732014462,585013,0,1.001953125,0.48828125,0.037109375,0.525390625,0.0,0.0,0.0
732015713,585014,0,1.017578125,0.58203125,0.064453125,0.646484375,0.0,0.0,0.0
732016965,585015,0,1.02734375,0.669921875,0.07421875,0.744140625,0.0,0.0,0.0
732018216,585016,0,1.033203125,0.751953125,0.10546875,0.857421875,0.0,0.0,0.0
732019468,585017,0,1.029296875,0.8203125,0.134765625,0.955078125,0.0,0.0,0.0
732020719,585018,0,1.037109375,0.87109375,0.1484375,1.01953125,0.0,0.0,0.0
732021969,585019,0,1.037109375,0.90625,0.17578125,1.08203125,0.0,0.0,0.0
732023221,585020,0,1.029296875,0.9296875,0.1796875,1.109375,0.0,0.0,0.0
732024471,585021,0,1.03125,0.9765625,0.1953125,1.171875,0.0,0.0,0.0
732025721,585022,0,1.02734375,0.974609375,0.201171875,1.17578125,0.0,0.0,0.0
732026972,585023,0,1.029296875,0.958984375,0.197265625,1.15625,0.0,0.0,0.0
732028224,585024,0,1.02734375,0.939453125,0.205078125,1.14453125,0.0,0.0,0.0
732029474,585025,0,1.029296875,0.90625,0.1953125,1.1015625,0.0,0.0,0.0
732030724,585026,0,1.02734375,0.86328125,0.189453125,1.052734375,0.0,0.0,0.0
732031976,585027,0,1.02734375,0.798828125,0.166015625,0.96484375,0.0,0.0,0.0
732033226,585028,0,1.025390625,0.740234375,0.154296875,0.89453125,0.0,0.0,0.0
732034476,585029,0,1.025390625,0.673828125,0.138671875,0.8125,0.0,0.0,0.0
732035728,585030,0,1.029296875,0.6015625,0.125,0.7265625,0.0,0.0,0.0
732036978,585031,0,1.0234375,0.525390625,0.111328125,0.63671875,0.0,0.0,0.0
732038230,585032,0,1.01953125,0.439453125,0.080078125,0.51953125,0.0,0.0,0.0
732039481,585033,0,1.013671875,0.3515625,0.06640625,0.41796875,0.0,0.0,0.0
732040732,585034,0,1.009765625,0.263671875,0.04296875,0.306640625,0.0,0.0,0.0
732041983,585035,0,1.00390625,0.169921875,0.013671875,0.18359375,0.0,0.0,0.0
732043235,585036,0,1.001953125,0.083984375,0.00390625,0.087890625,0.0,0.0,0.0
732044485,585037,0,0.9921875,-0.009765625,-0.005859375,-0.015625,0.0,0.0,0.0
732045736,585038,0,0.99609375,-0.08984375,-0.03125,-0.12109375,0.0,0.0,0.0
732046987,585039,0,0.99609375,-0.16796875,-0.0546875,-0.22265625,0.0,0.0,0.0
732048237,585040,0,1.0,-0.23828125,-0.060546875,-0.298828125,0.0,0.0,0.0
732049488,585041,0,1.0078125,-0.306640625,-0.07421875,-0.380859375,0.0,0.0,0.0
732050738,585042,0,1.0,-0.375,-0.06640625,-0.44140625,0.0,0.0,0.0
732051989,585043,0,1.0,-0.427734375,-0.052734375,-0.48046875,0.0,0.0,0.0
732053239,585044,0,0.994140625,-0.498046875,-0.05859375,-0.556640625,0.0,0.0,0.0
732054490,585045,0,0.9921875,-0.544921875,-0.080078125,-0.625,0.0,0.0,0.0
732055741,585046,0,0.98828125,-0.5859375,-0.10546875,-0.69140625,0.0,0.0,0.0
732056991,585047,0,0.9921875,-0.615234375,-0.107421875,-0.72265625,0.0,0.0,0.0
732058242,585048,0,0.98828125,-0.642578125,-0.103515625,-0.74609375,0.0,0.0,0.0
732059493,585049,0,0.986328125,-0.662109375,-0.095703125,-0.7578125,0.0,0.0,0.0
732060745,585050,0,0.994140625,-0.666015625,-0.08984375,-0.755859375,0.0,0.0,0.0
732061995,585051,0,0.98828125,-0.66796875,-0.095703125,-0.763671875,0.0,0.0,0.0
732063247,585052,0,0.994140625,-0.65234375,-0.09375,-0.74609375,0.0,0.0,0.0
732064498,585053,0,0.994140625,-0.64453125,-0.09765625,-0.7421875,0.0,0.0,0.0
732065749,585054,0,0.9921875,-0.625,-0.0859375,-0.7109375,0.0,0.0,0.0
732067000,585055,0,0.994140625,-0.599609375,-0.08984375,-0.689453125,0.0,0.0,0.0
732068250,585056,0,0.9921875,-0.556640625,-0.0859375,-0.642578125,0.0,0.0,0.0
732069501,585057,0,0.99609375,-0.521484375,-0.080078125,-0.6015625,0.0,0.0,0.0
732070752,585058,0,1.0,-0.47265625,-0.064453125,-0.537109375,0.0,0.0,0.0
732072003,585059,0,0.994140625,-0.427734375,-0.068359375,-0.49609375,0.0,0.0,0.0
732073254,585060,0,0.99609375,-0.37109375,-0.06640625,-0.4375,0.0,0.0,0.0
732074504,585061,0,0.98828125,-0.3203125,-0.060546875,-0.380859375,0.0,0.0,0.0
732075755,585062,0,0.9921875,-0.255859375,-0.037109375,-0.29296875,0.0,0.0,0.0
732077006,585063,0,1.00390625,-0.140625,-0.025390625,-0.166015625,0.0,0.0,0.0
732078258,585064,0,1.00390625,-0.0859375,-0.0078125,-0.09375,0.0,0.0,0.0
732079509,585065,0,1.005859375,-0.03125,-0.001953125,-0.033203125,0.0,0.0,0.0
732080760,585066,0,1.0,0.0234375,0.01171875,0.03515625,0.0,0.0,0.0
732082011,585067,0,1.005859375,0.083984375,0.01953125,0.103515625,0.0,0.0,0.0
732083262,585068,0,1.0078125,0.1328125,0.033203125,0.166015625,0.0,0.0,0.0
732084513,585069,0,1.00390625,0.177734375,0.037109375,0.21484375,0.0,0.0,0.0
732085764,585070,0,1.009765625,0.224609375,0.046875,0.271484375,0.0,0.0,0.0
732087016,585071,0,1.0078125,0.263671875,0.05859375,0.322265625,0.0,0.0,0.0
732088271,585072,0,1.01953125,0.30078125,0.060546875,0.361328125,0.0,0.0,0.0
732089521,585073,0,1.01171875,0.326171875,0.076171875,0.40234375,0.0,0.0,0.0
732090772,585074,0,1.013671875,0.35546875,0.078125,0.43359375,0.0,0.0,0.0
732092022,585075,0,1.021484375,0.380859375,0.083984375,0.46484375,0.0,0.0,0.0
732093274,585076,0,1.021484375,0.392578125,0.09375,0.486328125,0.0,0.0,0.0
732094525,585077,0,1.021484375,0.3984375,0.09765625,0.49609375,0.0,0.0,0.0
732095776,585078,0,1.01171875,0.416015625,0.109375,0.525390625,0.0,0.0,0.0
732097027,585079,0,1.017578125,0.3984375,0.08984375,0.48828125,0.0,0.0,0.0
732098279,585080,0,1.0234375,0.396484375,0.091796875,0.48828125,0.0,0.0,0.0
732099531,585081,0,1.01953125,0.388671875,0.10546875,0.494140625,0.0,0.0,0.0
732100782,585082,0,1.01171875,0.37890625,0.09765625,0.4765625,0.0,0.0,0.0
732102032,585083,0,1.001953125,0.349609375,0.09375,0.443359375,0.0,0.0,0.0
732103283,585084,0,1.01171875,0.33203125,0.0859375,0.41796875,0.0,0.0,0.0
732104534,585085,0,1.009765625,0.306640625,0.078125,0.384765625,0.0,0.0,0.0
732105785,585086,0,1.0078125,0.27734375,0.078125,0.35546875,0.0,0.0,0.0
732107037,585087,0,1.009765625,0.2421875,0.076171875,0.318359375,0.0,0.0,0.0
732108288,585088,0,1.01171875,0.2109375,0.068359375,0.279296875,0.0,0.0,0.0
732109539,585089,0,1.013671875,0.169921875,0.052734375,0.22265625,0.0,0.0,0.0
732110790,585090,0,1.0078125,0.130859375,0.044921875,0.17578125,0.0,0.0,0.0
732112040,585091,0,1.00390625,0.09375,0.037109375,0.130859375,0.0,0.0,0.0
732113290,585092,0,1.001953125,0.056640625,0.03125,0.087890625,0.0,0.0,0.0
732114542,585093,0,1.009765625,0.013671875,0.029296875,0.04296875,0.0,0.0,0.0
732115793,585094,0,1.009765625,-0.01953125,0.017578125,-0.001953125,0.0,0.0,0.0
732117044,585095,0,0.998046875,-0.05859375,0.015625,-0.04296875,0.0,0.0,0.0
732118295,585096,0,1.005859375,-0.087890625,0.00390625,-0.083984375,0.0,0.0,0.0
732119546,585097,0,1.0078125,-0.12109375,-0.00390625,-0.125,0.0,0.0,0.0
732120796,585098,0,1.001953125,-0.150390625,-0.00390625,-0.154296875,0.0,0.0,0.0
732122048,585099,0,1.00390625,-0.177734375,-0.017578125,-0.1953125,0.0,0.0,0.0
732123299,585100,0,0.99609375,-0.201171875,-0.0078125,-0.208984375,0.0,0.0,0.0
732124549,585101,0,0.998046875,-0.236328125,-0.025390625,-0.26171875,0.0,0.0,0.0
732125801,585102,0,1.001953125,-0.248046875,-0.025390625,-0.2734375,0.0,0.0,0.0
732127051,585103,0,1.0078125,-0.26171875,-0.029296875,-0.291015625,0.0,0.0,0.0
732128301,585104,0,0.998046875,-0.279296875,-0.029296875,-0.30859375,0.0,0.0,0.0
732129552,585105,0,0.998046875,-0.2890625,-0.03125,-0.3203125,0.0,0.0,0.0
732130803,585106,0,0.99609375,-0.291015625,-0.037109375,-0.328125,0.0,0.0,0.0
732132054,585107,0,0.9921875,-0.291015625,-0.037109375,-0.328125,0.0,0.0,0.0
732133305,585108,0,0.994140625,-0.2890625,-0.0390625,-0.328125,0.0,0.0,0.0
732134556,585109,0,0.994140625,-0.283203125,-0.033203125,-0.31640625,0.0,0.0,0.0
732135807,585110,0,0.998046875,-0.2734375,-0.033203125,-0.306640625,0.0,0.0,0.0
732137059,585111,0,0.998046875,-0.259765625,-0.02734375,-0.287109375,0.0,0.0,0.0
732138310,585112,0,0.998046875,-0.2421875,-0.025390625,-0.267578125,0.0,0.0,0.0
732139560,585113,0,0.998046875,-0.224609375,-0.025390625,-0.25,0.0,0.0,0.0
732140810,585114,0,1.001953125,-0.20703125,-0.025390625,-0.232421875,0.0,0.0,0.0
732142061,585115,0,0.994140625,-0.185546875,-0.017578125,-0.203125,0.0,0.0,0.0
732143311,585116,0,0.998046875,-0.166015625,-0.01171875,-0.177734375,0.0,0.0,0.0
732144563,585117,0,0.998046875,-0.14453125,-0.015625,-0.16015625,0.0,0.0,0.0
732145813,585118,0,1.00390625,-0.12109375,-0.0078125,-0.12890625,0.0,0.0,0.0
732147065,585119,0,0.99609375,-0.08984375,-0.005859375,-0.095703125,0.0,0.0,0.0
732148316,585120,0,1.0078125,-0.07421875,0.00390625,-0.0703125,0.0,0.0,0.0
732149566,585121,0,1.009765625,-0.037109375,0.009765625,-0.02734375,0.0,0.0,0.0
732150817,585122,0,1.005859375,-0.0234375,0.01953125,-0.00390625,0.0,0.0,0.0
732152067,585123,0,1.0078125,0.001953125,0.0234375,0.025390625,0.0,0.0,0.0
732153317,585124,0,0.998046875,0.0234375,0.021484375,0.044921875,0.0,0.0,0.0
732154567,585125,0,1.015625,0.046875,0.021484375,0.068359375,0.0,0.0,0.0
732155818,585126,0,1.001953125,0.07421875,0.03125,0.10546875,0.0,0.0,0.0
732157070,585127,0,1.009765625,0.0859375,0.02734375,0.11328125,0.0,0.0,0.0
732158321,585128,0,1.00390625,0.1015625,0.033203125,0.134765625,0.0,0.0,0.0
732159571,585129,0,1.009765625,0.115234375,0.0390625,0.154296875,0.0,0.0,0.0
732160821,585130,0,1.0078125,0.126953125,0.041015625,0.16796875,0.0,0.0,0.0
732162071,585131,0,1.0078125,0.134765625,0.044921875,0.1796875,0.0,0.0,0.0
732163322,585132,0,1.0,0.140625,0.046875,0.1875,0.0,0.0,0.0
732164572,585133,0,1.009765625,0.15234375,0.05078125,0.203125,0.0,0.0,0.0
732165823,585134,0,1.0078125,0.15234375,0.046875,0.19921875,0.0,0.0,0.0
732167075,585135,0,1.009765625,0.158203125,0.048828125,0.20703125,0.0,0.0,0.0
732168326,585136,0,1.009765625,0.15234375,0.052734375,0.205078125,0.0,0.0,0.0
732169577,585137,0,1.00390625,0.15234375,0.056640625,0.208984375,0.0,0.0,0.0
732170829,585138,0,1.005859375,0.14453125,0.05078125,0.1953125,0.0,0.0,0.0
732172079,585139,0,1.009765625,0.13671875,0.05078125,0.1875,0.0,0.0,0.0
732173329,585140,0,1.01171875,0.12890625,0.046875,0.17578125,0.0,0.0,0.0
732174580,585141,0,1.005859375,0.119140625,0.046875,0.166015625,0.0,0.0,0.0
732175831,585142,0,1.00390625,0.109375,0.044921875,0.154296875,0.0,0.0,0.0
732177082,585143,0,1.001953125,0.091796875,0.037109375,0.12890625,0.0,0.0,0.0
732178333,585144,0,1.009765625,0.080078125,0.0390625,0.119140625,0.0,0.0,0.0
732179584,585145,0,1.0078125,0.072265625,0.048828125,0.12109375,0.0,0.0,0.0
732180835,585146,0,1.0078125,0.05078125,0.03125,0.08203125,0.0,0.0,0.0
732182087,585147,0,1.005859375,0.01953125,0.02734375,0.046875,0.0,0.0,0.0
732183338,585148,0,1.00390625,0.00390625,0.0234375,0.02734375,0.0,0.0,0.0
732184590,585149,0,1.0,-0.009765625,0.021484375,0.01171875,0.0,0.0,0.0
732185841,585150,0,1.0,-0.03125,0.01953125,-0.01171875,0.0,0.0,0.0
732187092,585151,0,1.005859375,-0.041015625,0.021484375,-0.01953125,0.0,0.0,0.0
732188343,585152,0,1.005859375,-0.0546875,0.01953125,-0.03515625,0.0,0.0,0.0
732189595,585153,0,1.0,-0.0703125,0.009765625,-0.060546875,0.0,0.0,0.0
732190845,585154,0,0.998046875,-0.083984375,0.009765625,-0.07421875,0.0,0.0,0.0
732192097,585155,0,1.005859375,-0.08984375,0.00390625,-0.0859375,0.0,0.0,0.0
732193348,585156,0,1.0,-0.103515625,-0.001953125,-0.10546875,0.0,0.0,0.0
732194600,585157,0,0.99609375,-0.107421875,0.0,-0.107421875,0.0,0.0,0.0
732195850,585158,0,1.005859375,-0.115234375,-0.00390625,-0.119140625,0.0,0.0,0.0
732197101,585159,0,1.001953125,-0.126953125,0.0,-0.126953125,0.0,0.0,0.0
732198351,585160,0,1.001953125,-0.126953125,-0.001953125,-0.12890625,0.0,0.0,0.0
732199602,585161,0,0.994140625,-0.12890625,0.005859375,-0.123046875,0.0,0.0,0.0
732200853,585162,0,1.00390625,-0.134765625,-0.00390625,-0.138671875,0.0,0.0,0.0
732202104,585163,0,1.005859375,-0.126953125,0.005859375,-0.12109375,0.0,0.0,0.0
732203355,585164,0,1.001953125,-0.1328125,-0.009765625,-0.142578125,0.0,0.0,0.0
732204606,585165,0,1.005859375,-0.1328125,-0.00390625,-0.13671875,0.0,0.0,0.0
732205857,585166,0,1.0,-0.134765625,-0.005859375,-0.140625,0.0,0.0,0.0
732207109,585167,0,1.005859375,-0.126953125,-0.017578125,-0.14453125,0.0,0.0,0.0
732208360,585168,0,0.99609375,-0.1171875,-0.001953125,-0.119140625,0.0,0.0,0.0
732209610,585169,0,1.0,-0.1171875,-0.00390625,-0.12109375,0.0,0.0,0.0
732210861,585170,0,1.001953125,-0.103515625,-0.00390625,-0.107421875,0.0,0.0,0.0
732212112,585171,0,1.00390625,-0.09765625,0.0,-0.09765625,0.0,0.0,0.0
732213362,585172,0,1.00390625,-0.08984375,0.00390625,-0.0859375,0.0,0.0,0.0
732214613,585173,0,1.005859375,-0.080078125,-0.001953125,-0.08203125,0.0,0.0,0.0
732215863,585174,0,1.00390625,-0.0703125,0.001953125,-0.068359375,0.0,0.0,0.0
732217115,585175,0,1.001953125,-0.060546875,0.001953125,-0.05859375,0.0,0.0,0.0
732218366,585176,0,1.001953125,-0.05078125,0.013671875,-0.037109375,0.0,0.0,0.0
732219616,585177,0,1.00390625,-0.041015625,0.001953125,-0.0390625,0.0,0.0,0.0
732220867,585178,0,0.998046875,-0.029296875,0.01171875,-0.017578125,0.0,0.0,0.0
732222117,585179,0,1.005859375,-0.021484375,0.013671875,-0.0078125,0.0,0.0,0.0
732223367,585180,0,0.998046875,-0.01953125,0.01171875,-0.0078125,0.0,0.0,0.0
732224618,585181,0,1.005859375,-0.005859375,0.017578125,0.01171875,0.0,0.0,0.0
732225868,585182,0,1.0078125,0.0078125,0.017578125,0.025390625,0.0,0.0,0.0
732227120,585183,0,1.00390625,0.013671875,0.0234375,0.037109375,0.0,0.0,0.0
732228371,585184,0,1.015625,0.017578125,0.015625,0.033203125,0.0,0.0,0.0
732229621,585185,0,1.005859375,0.02734375,0.021484375,0.048828125,0.0,0.0,0.0
732230873,585186,0,1.017578125,0.0234375,0.02734375,0.05078125,0.0,0.0,0.0
732232123,585187,0,1.0078125,0.03125,0.0390625,0.0703125,0.0,0.0,0.0
732233373,585188,0,1.021484375,0.03515625,0.03515625,0.0703125,0.0,0.0,0.0
732234623,585189,0,1.005859375,0.04296875,0.02734375,0.0703125,0.0,0.0,0.0
732235873,585190,0,0.99609375,0.048828125,0.02734375,0.076171875,0.0,0.0,0.0
732237125,585191,0,1.0078125,0.048828125,0.029296875,0.078125,0.0,0.0,0.0
732238376,585192,0,1.0,0.046875,0.029296875,0.076171875,0.0,0.0,0.0
732239626,585193,0,1.0078125,0.044921875,0.03515625,0.080078125,0.0,0.0,0.0
732240877,585194,0,1.009765625,0.04296875,0.029296875,0.072265625,0.0,0.0,0.0
732242128,585195,0,0.998046875,0.041015625,0.037109375,0.078125,0.0,0.0,0.0
732243378,585196,0,1.005859375,0.03515625,0.029296875,0.064453125,0.0,0.0,0.0
732244629,585197,0,1.0078125,0.037109375,0.03125,0.068359375,0.0,0.0,0.0
732245880,585198,0,1.001953125,0.03125,0.029296875,0.060546875,0.0,0.0,0.0
732247131,585199,0,1.0078125,0.01953125,0.029296875,0.048828125,0.0,0.0,0.0
732248382,585200,0,1.00390625,0.017578125,0.02734375,0.044921875,0.0,0.0,0.0
732249632,585201,0,1.0078125,0.015625,0.033203125,0.048828125,0.0,0.0,0.0
732250883,585202,0,1.0078125,0.00390625,0.025390625,0.029296875,0.0,0.0,0.0
732252134,585203,0,1.0,0.0,0.029296875,0.029296875,0.0,0.0,0.0
732253384,585204,0,1.005859375,-0.005859375,0.021484375,0.015625,0.0,0.0,0.0
732254636,585205,0,1.009765625,-0.009765625,0.015625,0.005859375,0.0,0.0,0.0
732255886,585206,0,1.00390625,-0.013671875,0.025390625,0.01171875,0.0,0.0,0.0
732257137,585207,0,1.0078125,-0.01953125,0.025390625,0.005859375,0.0,0.0,0.0
732258388,585208,0,1.009765625,-0.025390625,0.021484375,-0.00390625,0.0,0.0,0.0
732259639,585209,0,1.009765625,-0.03125,0.021484375,-0.009765625,0.0,0.0,0.0
732260889,585210,0,1.001953125,-0.0390625,0.013671875,-0.025390625,0.0,0.0,0.0
732262140,585211,0,1.0,-0.041015625,0.01171875,-0.029296875,0.0,0.0,0.0
732263392,585212,0,1.009765625,-0.05078125,0.015625,-0.03515625,0.0,0.0,0.0
732264642,585213,0,1.0078125,-0.05078125,0.013671875,-0.037109375,0.0,0.0,0.0
732265894,585214,0,1.00390625,-0.056640625,0.013671875,-0.04296875,0.0,0.0,0.0
732267145,585215,0,1.001953125,-0.056640625,0.017578125,-0.0390625,0.0,0.0,0.0
732268396,585216,0,1.001953125,-0.0625,0.01171875,-0.05078125,0.0,0.0,0.0
732269648,585217,0,1.00390625,-0.0625,0.01171875,-0.05078125,0.0,0.0,0.0
732270899,585218,0,1.001953125,-0.064453125,0.005859375,-0.05859375,0.0,0.0,0.0
732272150,585219,0,1.00390625,-0.0703125,0.009765625,-0.060546875,0.0,0.0,0.0
732273400,585220,0,1.001953125,-0.068359375,0.005859375,-0.0625,0.0,0.0,0.0
732274651,585221,0,0.998046875,-0.064453125,0.009765625,-0.0546875,0.0,0.0,0.0
732275902,585222,0,1.00390625,-0.0703125,0.0078125,-0.0625,0.0,0.0,0.0
732277152,585223,0,1.00390625,-0.0703125,0.013671875,-0.056640625,0.0,0.0,0.0
732278402,585224,0,1.00390625,-0.0625,0.00390625,-0.05859375,0.0,0.0,0.0
732279654,585225,0,1.009765625,-0.068359375,0.005859375,-0.0625,0.0,0.0,0.0
732280904,585226,0,1.0,-0.060546875,0.005859375,-0.0546875,0.0,0.0,0.0
732282154,585227,0,0.994140625,-0.052734375,0.00390625,-0.048828125,0.0,0.0,0.0
732283405,585228,0,1.005859375,-0.05859375,0.005859375,-0.052734375,0.0,0.0,0.0
732284655,585229,0,1.001953125,-0.0546875,0.021484375,-0.033203125,0.0,0.0,0.0
732285906,585230,0,0.998046875,-0.048828125,0.009765625,-0.0390625,0.0,0.0,0.0
732287157,585231,0,1.00390625,-0.048828125,0.009765625,-0.0390625,0.0,0.0,0.0
732288408,585232,0,1.0,-0.041015625,0.01171875,-0.029296875,0.0,0.0,0.0
732289659,585233,0,1.001953125,-0.037109375,0.015625,-0.021484375,0.0,0.0,0.0
732290911,585234,0,1.00390625,-0.033203125,0.017578125,-0.015625,0.0,0.0,0.0
732292162,585235,0,1.005859375,-0.03125,0.009765625,-0.021484375,0.0,0.0,0.0
732293414,585236,0,1.001953125,-0.029296875,0.017578125,-0.01171875,0.0,0.0,0.0
732294664,585237,0,1.005859375,-0.02734375,0.015625,-0.01171875,0.0,0.0,0.0
732295916,585238,0,1.0078125,-0.01953125,0.01953125,0.0,0.0,0.0,0.0
732297167,585239,0,1.005859375,-0.017578125,0.0234375,0.005859375,0.0,0.0,0.0
732298417,585240,0,1.00390625,-0.01171875,0.013671875,0.001953125,0.0,0.0,0.0
732299668,585241,0,1.00390625,-0.01171875,0.015625,0.00390625,0.0,0.0,0.0
732300919,585242,0,1.005859375,-0.0078125,0.01953125,0.01171875,0.0,0.0,0.0
732302170,585243,0,1.0,-0.001953125,0.021484375,0.01953125,0.0,0.0,0.0
732303421,585244,0,1.00390625,0.0,0.0234375,0.0234375,0.0,0.0,0.0
732304672,585245,0,1.0,-0.0078125,0.025390625,0.017578125,0.0,0.0,0.0
732305922,585246,0,1.009765625,-0.00390625,0.021484375,0.017578125,0.0,0.0,0.0
732307173,585247,0,1.009765625,-0.00390625,0.021484375,0.017578125,0.0,0.0,0.0
732308425,585248,0,1.009765625,0.0078125,0.017578125,0.025390625,0.0,0.0,0.0
732309675,585249,0,1.0,0.005859375,0.03125,0.037109375,0.0,0.0,0.0
732310927,585250,0,0.99609375,0.0,0.029296875,0.029296875,0.0,0.0,0.0
732312177,585251,0,1.00390625,0.001953125,0.025390625,0.02734375,0.0,0.0,0.0
732313429,585252,0,1.009765625,0.005859375,0.01953125,0.025390625,0.0,0.0,0.0
732314680,585253,0,0.998046875,0.00390625,0.021484375,0.025390625,0.0,0.0,0.0
732315930,585254,0,1.005859375,0.001953125,0.021484375,0.0234375,0.0,0.0,0.0
732317180,585255,0,1.00390625,-0.001953125,0.0234375,0.021484375,0.0,0.0,0.0
732318431,585256,0,1.005859375,0.0,0.025390625,0.025390625,0.0,0.0,0.0
732319682,585257,0,1.001953125,0.0,0.0234375,0.0234375,0.0,0.0,0.0
732320933,585258,0,1.001953125,-0.00390625,0.02734375,0.0234375,0.0,0.0,0.0
732322184,585259,0,1.005859375,-0.001953125,0.029296875,0.02734375,0.0,0.0,0.0
732323434,585260,0,1.00390625,-0.005859375,0.021484375,0.015625,0.0,0.0,0.0
732324685,585261,0,1.0078125,-0.005859375,0.03125,0.025390625,0.0,0.0,0.0
732325936,585262,0,1.0078125,-0.009765625,0.015625,0.005859375,0.0,0.0,0.0
732327188,585263,0,1.00390625,-0.009765625,0.021484375,0.01171875,0.0,0.0,0.0
732328439,585264,0,1.0078125,-0.015625,0.017578125,0.001953125,0.0,0.0,0.0
732329690,585265,0,1.009765625,-0.013671875,0.025390625,0.01171875,0.0,0.0,0.0
732330941,585266,0,1.001953125,-0.02734375,0.01953125,-0.0078125,0.0,0.0,0.0
732332192,585267,0,1.0078125,-0.017578125,0.021484375,0.00390625,0.0,0.0,0.0
732333443,585268,0,1.001953125,-0.0234375,0.01953125,-0.00390625,0.0,0.0,0.0
732334695,585269,0,1.0078125,-0.017578125,0.0234375,0.005859375,0.0,0.0,0.0
732335945,585270,0,0.99609375,-0.03125,0.01953125,-0.01171875,0.0,0.0,0.0
732337195,585271,0,1.001953125,-0.02734375,0.013671875,-0.013671875,0.0,0.0,0.0
732338447,585272,0,1.009765625,-0.033203125,0.017578125,-0.015625,0.0,0.0,0.0
732339697,585273,0,1.0078125,-0.033203125,0.015625,-0.017578125,0.0,0.0,0.0
732340949,585274,0,1.00390625,-0.037109375,0.015625,-0.021484375,0.0,0.0,0.0
732342200,585275,0,0.99609375,-0.037109375,0.015625,-0.021484375,0.0,0.0,0.0
732343452,585276,0,1.005859375,-0.037109375,0.01171875,-0.025390625,0.0,0.0,0.0
732344702,585277,0,1.009765625,-0.037109375,0.013671875,-0.0234375,0.0,0.0,0.0
732345954,585278,0,1.0078125,-0.037109375,0.0078125,-0.029296875,0.0,0.0,0.0
732347205,585279,0,1.0,-0.04296875,0.01171875,-0.03125,0.0,0.0,0.0
732348456,585280,0,1.005859375,-0.0390625,0.015625,-0.0234375,0.0,0.0,0.0
732349708,585281,0,1.005859375,-0.044921875,0.015625,-0.029296875,0.0,0.0,0.0
732350958,585282,0,0.998046875,-0.041015625,0.017578125,-0.0234375,0.0,0.0,0.0
732352209,585283,0,1.005859375,-0.044921875,0.015625,-0.029296875,0.0,0.0,0.0
732353459,585284,0,1.00390625,-0.044921875,0.01171875,-0.033203125,0.0,0.0,0.0
732354710,585285,0,1.0078125,-0.046875,0.005859375,-0.041015625,0.0,0.0,0.0
732355961,585286,0,1.00390625,-0.044921875,0.015625,-0.029296875,0.0,0.0,0.0
732357212,585287,0,1.005859375,-0.044921875,0.009765625,-0.03515625,0.0,0.0,0.0
732358462,585288,0,1.00390625,-0.046875,0.013671875,-0.033203125,0.0,0.0,0.0
732359713,585289,0,1.001953125,-0.0390625,0.017578125,-0.021484375,0.0,0.0,0.0
732360965,585290,0,1.0,-0.041015625,0.01171875,-0.029296875,0.0,0.0,0.0
732362216,585291,0,1.0078125,-0.044921875,0.013671875,-0.03125,0.0,0.0,0.0
732363468,585292,0,1.009765625,-0.0390625,0.01171875,-0.02734375,0.0,0.0,0.0
732364719,585293,0,1.0,-0.037109375,0.017578125,-0.01953125,0.0,0.0,0.0
732365969,585294,0,1.005859375,-0.029296875,0.013671875,-0.015625,0.0,0.0,0.0
732367221,585295,0,0.998046875,-0.02734375,0.013671875,-0.013671875,0.0,0.0,0.0
732368471,585296,0,0.998046875,-0.03125,0.0078125,-0.0234375,0.0,0.0,0.0
732369721,585297,0,0.9921875,-0.029296875,0.021484375,-0.0078125,0.0,0.0,0.0
732370972,585298,0,1.005859375,-0.025390625,0.017578125,-0.0078125,0.0,0.0,0.0
732372224,585299,0,1.00390625,-0.025390625,0.015625,-0.009765625,0.0,0.0,0.0
732373474,585300,0,1.00390625,-0.025390625,0.01953125,-0.005859375,0.0,0.0,0.0
732374724,585301,0,1.005859375,-0.0234375,0.013671875,-0.009765625,0.0,0.0,0.0
732375976,585302,0,1.005859375,-0.01953125,0.013671875,-0.005859375,0.0,0.0,0.0
732377226,585303,0,1.0078125,-0.01953125,0.01953125,0.0,0.0,0.0,0.0
732378476,585304,0,1.005859375,-0.01953125,0.021484375,0.001953125,0.0,0.0,0.0
732379728,585305,0,1.001953125,-0.01171875,0.025390625,0.013671875,0.0,0.0,0.0
732380978,585306,0,1.0078125,-0.009765625,0.0234375,0.013671875,0.0,0.0,0.0
732382230,585307,0,1.0,-0.013671875,0.017578125,0.00390625,0.0,0.0,0.0
732383481,585308,0,0.99609375,-0.01171875,0.0234375,0.01171875,0.0,0.0,0.0
732384732,585309,0,1.00390625,-0.009765625,0.01953125,0.009765625,0.0,0.0,0.0
732385983,585310,0,0.998046875,-0.009765625,0.017578125,0.0078125,0.0,0.0,0.0
732387235,585311,0,1.00390625,-0.009765625,0.021484375,0.01171875,0.0,0.0,0.0
732388485,585312,0,0.99609375,-0.00390625,0.01953125,0.015625,0.0,0.0,0.0
732389736,585313,0,1.001953125,-0.001953125,0.013671875,0.01171875,0.0,0.0,0.0
732390987,585314,0,1.009765625,-0.009765625,0.015625,0.005859375,0.0,0.0,0.0
732392237,585315,0,1.0078125,-0.0078125,0.0234375,0.015625,0.0,0.0,0.0
732393488,585316,0,1.005859375,-0.00390625,0.017578125,0.013671875,0.0,0.0,0.0
732394738,585317,0,1.00390625,-0.01171875,0.017578125,0.005859375,0.0,0.0,0.0
732395989,585318,0,1.001953125,-0.001953125,0.0234375,0.021484375,0.0,0.0,0.0
732397239,585319,0,1.00390625,-0.005859375,0.0234375,0.017578125,0.0,0.0,0.0
732398490,585320,0,1.009765625,-0.00390625,0.01953125,0.015625,0.0,0.0,0.0
732399741,585321,0,1.00390625,-0.0078125,0.0234375,0.015625,0.0,0.0,0.0
732400991,585322,0,1.005859375,-0.005859375,0.021484375,0.015625,0.0,0.0,0.0
732402242,585323,0,1.009765625,-0.015625,0.01953125,0.00390625,0.0,0.0,0.0
732403493,585324,0,1.001953125,-0.013671875,0.025390625,0.01171875,0.0,0.0,0.0
732404745,585325,0,1.001953125,-0.015625,0.017578125,0.001953125,0.0,0.0,0.0
732405995,585326,0,1.005859375,-0.01953125,0.01953125,0.0,0.0,0.0,0.0
732407247,585327,0,1.005859375,-0.013671875,0.015625,0.001953125,0.0,0.0,0.0
732408498,585328,0,1.009765625,-0.021484375,0.013671875,-0.0078125,0.0,0.0,0.0
732409749,585329,0,1.013671875,-0.02734375,0.017578125,-0.009765625,0.0,0.0,0.0
732411000,585330,0,1.00390625,-0.02734375,0.013671875,-0.013671875,0.0,0.0,0.0
732412250,585331,0,1.005859375,-0.02734375,0.0234375,-0.00390625,0.0,0.0,0.0
732413501,585332,0,0.998046875,-0.02734375,0.021484375,-0.005859375,0.0,0.0,0.0
732414752,585333,0,1.0,-0.033203125,0.017578125,-0.015625,0.0,0.0,0.0
732416003,585334,0,1.01171875,-0.0390625,0.009765625,-0.029296875,0.0,0.0,0.0
732417254,585335,0,1.0078125,-0.033203125,0.01171875,-0.021484375,0.0,0.0,0.0
732418504,585336,0,1.0078125,-0.03125,0.01171875,-0.01953125,0.0,0.0,0.0
732419755,585337,0,1.0,-0.037109375,0.025390625,-0.01171875,0.0,0.0,0.0
732421006,585338,0,1.009765625,-0.041015625,0.015625,-0.025390625,0.0,0.0,0.0
732422257,585339,0,1.0078125,-0.041015625,0.017578125,-0.0234375,0.0,0.0,0.0
732423508,585340,0,1.005859375,-0.044921875,0.01171875,-0.033203125,0.0,0.0,0.0
732424760,585341,0,1.0078125,-0.044921875,0.017578125,-0.02734375,0.0,0.0,0.0
732426010,585342,0,1.005859375,-0.041015625,0.01171875,-0.029296875,0.0,0.0,0.0
732427261,585343,0,1.005859375,-0.04296875,0.01171875,-0.03125,0.0,0.0,0.0
732428513,585344,0,1.001953125,-0.044921875,0.017578125,-0.02734375,0.0,0.0,0.0
732429763,585345,0,1.001953125,-0.044921875,0.021484375,-0.0234375,0.0,0.0,0.0
732431014,585346,0,1.005859375,-0.046875,0.015625,-0.03125,0.0,0.0,0.0
732432271,585347,0,1.005859375,-0.046875,0.021484375,-0.025390625,0.0,0.0,0.0
732433522,585348,0,1.00390625,-0.048828125,0.01953125,-0.029296875,0.0,0.0,0.0
732434774,585349,0,1.001953125,-0.041015625,0.01953125,-0.021484375,0.0,0.0,0.0
732436024,585350,0,1.005859375,-0.04296875,0.015625,-0.02734375,0.0,0.0,0.0
732437275,585351,0,1.005859375,-0.0390625,0.01953125,-0.01953125,0.0,0.0,0.0
732438527,585352,0,1.0,-0.037109375,0.017578125,-0.01953125,0.0,0.0,0.0
732439778,585353,0,1.001953125,-0.037109375,0.013671875,-0.0234375,0.0,0.0,0.0
732441028,585354,0,1.001953125,-0.03515625,0.021484375,-0.013671875,0.0,0.0,0.0
732442278,585355,0,1.015625,-0.033203125,0.009765625,-0.0234375,0.0,0.0,0.0
732443528,585356,0,1.009765625,-0.03125,0.01953125,-0.01171875,0.0,0.0,0.0
732444780,585357,0,1.00390625,-0.0234375,0.017578125,-0.005859375,0.0,0.0,0.0
732446031,585358,0,1.0,-0.02734375,0.015625,-0.01171875,0.0,0.0,0.0
732447282,585359,0,1.009765625,-0.025390625,0.01953125,-0.005859375,0.0,0.0,0.0
732448533,585360,0,1.001953125,-0.01953125,0.009765625,-0.009765625,0.0,0.0,0.0
732449784,585361,0,0.998046875,-0.017578125,0.017578125,0.0,0.0,0.0,0.0
732451034,585362,0,1.00390625,-0.021484375,0.015625,-0.005859375,0.0,0.0,0.0
732452284,585363,0,1.009765625,-0.017578125,0.01953125,0.001953125,0.0,0.0,0.0
732453536,585364,0,1.0,-0.013671875,0.013671875,0.0,0.0,0.0,0.0
732454787,585365,0,1.00390625,-0.01171875,0.017578125,0.005859375,0.0,0.0,0.0
732456038,585366,0,1.0078125,-0.009765625,0.015625,0.005859375,0.0,0.0,0.0
732457288,585367,0,1.0078125,-0.013671875,0.021484375,0.0078125,0.0,0.0,0.0
732458539,585368,0,1.00390625,-0.005859375,0.017578125,0.01171875,0.0,0.0,0.0
732459790,585369,0,1.0078125,-0.00390625,0.021484375,0.017578125,0.0,0.0,0.0
732461040,585370,0,1.00390625,-0.00390625,0.021484375,0.017578125,0.0,0.0,0.0
732462290,585371,0,1.001953125,-0.001953125,0.021484375,0.01953125,0.0,0.0,0.0
732463542,585372,0,1.0078125,-0.001953125,0.0234375,0.021484375,0.0,0.0,0.0
732464793,585373,0,1.009765625,-0.00390625,0.01953125,0.015625,0.0,0.0,0.0
732466044,585374,0,1.0,-0.00390625,0.01953125,0.015625,0.0,0.0,0.0
732467295,585375,0,1.00390625,-0.005859375,0.015625,0.009765625,0.0,0.0,0.0
732468546,585376,0,1.009765625,-0.001953125,0.017578125,0.015625,0.0,0.0,0.0
732469796,585377,0,1.009765625,-0.001953125,0.0234375,0.021484375,0.0,0.0,0.0
732471048,585378,0,0.990234375,-0.005859375,0.01953125,0.013671875,0.0,0.0,0.0
732472299,585379,0,0.998046875,-0.01171875,0.029296875,0.017578125,0.0,0.0,0.0
732473549,585380,0,1.005859375,-0.01171875,0.009765625,-0.001953125,0.0,0.0,0.0
732474801,585381,0,1.013671875,-0.009765625,0.015625,0.005859375,0.0,0.0,0.0
732476051,585382,0,1.005859375,-0.013671875,0.01953125,0.005859375,0.0,0.0,0.0
732477301,585383,0,1.005859375,-0.013671875,0.017578125,0.00390625,0.0,0.0,0.0
732478552,585384,0,1.00390625,-0.017578125,0.017578125,0.0,0.0,0.0,0.0
732479803,585385,0,1.005859375,-0.017578125,0.01953125,0.001953125,0.0,0.0,0.0
732481054,585386,0,1.00390625,-0.017578125,0.017578125,0.0,0.0,0.0,0.0
732482305,585387,0,1.0,-0.021484375,0.021484375,0.0,0.0,0.0,0.0
732483556,585388,0,1.005859375,-0.02734375,0.013671875,-0.013671875,0.0,0.0,0.0
732484807,585389,0,1.001953125,-0.029296875,0.021484375,-0.0078125,0.0,0.0,0.0
732486059,585390,0,1.0,-0.02734375,0.01171875,-0.015625,0.0,0.0,0.0
732487310,585391,0,1.00390625,-0.03125,0.013671875,-0.017578125,0.0,0.0,0.0
732488560,585392,0,1.0,-0.03515625,0.015625,-0.01953125,0.0,0.0,0.0
732489810,585393,0,1.001953125,-0.03515625,0.021484375,-0.013671875,0.0,0.0,0.0
732491061,585394,0,1.01171875,-0.033203125,0.017578125,-0.015625,0.0,0.0,0.0
732492311,585395,0,0.9921875,-0.037109375,0.005859375,-0.03125,0.0,0.0,0.0
732493563,585396,0,1.001953125,-0.04296875,0.015625,-0.02734375,0.0,0.0,0.0
732494813,585397,0,1.0,-0.044921875,0.01953125,-0.025390625,0.0,0.0,0.0
732496065,585398,0,1.00390625,-0.04296875,0.0078125,-0.03515625,0.0,0.0,0.0
732497316,585399,0,1.001953125,-0.044921875,0.01171875,-0.033203125,0.0,0.0,0.0
732498566,585400,0,1.005859375,-0.04296875,0.01171875,-0.03125,0.0,0.0,0.0
732499817,585401,0,0.994140625,-0.044921875,0.013671875,-0.03125,0.0,0.0,0.0
732501067,585402,0,1.001953125,-0.044921875,0.017578125,-0.02734375,0.0,0.0,0.0
732502317,585403,0,1.00390625,-0.044921875,0.01953125,-0.025390625,0.0,0.0,0.0
732503567,585404,0,1.005859375,-0.046875,0.017578125,-0.029296875,0.0,0.0,0.0
732504818,585405,0,1.0,-0.044921875,0.013671875,-0.03125,0.0,0.0,0.0
732506070,585406,0,1.001953125,-0.04296875,0.017578125,-0.025390625,0.0,0.0,0.0
732507321,585407,0,1.005859375,-0.0390625,0.01953125,-0.01953125,0.0,0.0,0.0
732508571,585408,0,1.001953125,-0.041015625,0.013671875,-0.02734375,0.0,0.0,0.0
732509821,585409,0,1.005859375,-0.0390625,0.015625,-0.0234375,0.0,0.0,0.0
732511071,585410,0,1.001953125,-0.037109375,0.015625,-0.021484375,0.0,0.0,0.0
732512322,585411,0,1.0078125,-0.03125,0.015625,-0.015625,0.0,0.0,0.0
732513572,585412,0,1.0,-0.03125,0.017578125,-0.013671875,0.0,0.0,0.0
732514823,585413,0,1.0078125,-0.029296875,0.013671875,-0.015625,0.0,0.0,0.0
732516075,585414,0,1.001953125,-0.0234375,0.015625,-0.0078125,0.0,0.0,0.0
732517326,585415,0,1.005859375,-0.021484375,0.01953125,-0.001953125,0.0,0.0,0.0
732518577,585416,0,1.009765625,-0.025390625,0.015625,-0.009765625,0.0,0.0,0.0
732519829,585417,0,1.009765625,-0.0234375,0.017578125,-0.005859375,0.0,0.0,0.0
732521079,585418,0,0.998046875,-0.01171875,0.01953125,0.0078125,0.0,0.0,0.0
732522329,585419,0,1.00390625,-0.021484375,0.0234375,0.001953125,0.0,0.0,0.0
732523580,585420,0,1.005859375,-0.015625,0.02734375,0.01171875,0.0,0.0,0.0
732524831,585421,0,1.0078125,-0.0078125,0.021484375,0.013671875,0.0,0.0,0.0
732526082,585422,0,1.013671875,-0.013671875,0.013671875,0.0,0.0,0.0,0.0
732527333,585423,0,0.998046875,-0.01171875,0.015625,0.00390625,0.0,0.0,0.0
732528584,585424,0,1.005859375,-0.0078125,0.0234375,0.015625,0.0,0.0,0.0
732529835,585425,0,1.001953125,-0.0078125,0.015625,0.0078125,0.0,0.0,0.0
732531087,585426,0,1.00390625,-0.00390625,0.021484375,0.017578125,0.0,0.0,0.0
732532338,585427,0,1.005859375,-0.001953125,0.021484375,0.01953125,0.0,0.0,0.0
732533590,585428,0,1.0,-0.005859375,0.01953125,0.013671875,0.0,0.0,0.0
732534841,585429,0,1.0078125,-0.001953125,0.025390625,0.0234375,0.0,0.0,0.0
732536092,585430,0,1.00390625,-0.005859375,0.0234375,0.017578125,0.0,0.0,0.0
732537343,585431,0,1.005859375,-0.00390625,0.021484375,0.017578125,0.0,0.0,0.0
732538595,585432,0,1.001953125,-0.00390625,0.0234375,0.01953125,0.0,0.0,0.0
732539845,585433,0,1.00390625,-0.00390625,0.01953125,0.015625,0.0,0.0,0.0
732541097,585434,0,1.005859375,-0.005859375,0.015625,0.009765625,0.0,0.0,0.0
732542348,585435,0,1.00390625,-0.005859375,0.01953125,0.013671875,0.0,0.0,0.0
732543600,585436,0,0.99609375,-0.0078125,0.021484375,0.013671875,0.0,0.0,0.0
732544850,585437,0,1.0078125,-0.009765625,0.029296875,0.01953125,0.0,0.0,0.0
732546101,585438,0,1.009765625,-0.009765625,0.029296875,0.01953125,0.0,0.0,0.0
732547351,585439,0,1.001953125,-0.017578125,0.013671875,-0.00390625,0.0,0.0,0.0
732548602,585440,0,1.0078125,-0.021484375,0.015625,-0.005859375,0.0,0.0,0.0
732549853,585441,0,1.00390625,-0.0234375,0.01171875,-0.01171875,0.0,0.0,0.0
732551104,585442,0,0.998046875,-0.01953125,0.021484375,0.001953125,0.0,0.0,0.0
732552355,585443,0,1.00390625,-0.021484375,0.015625,-0.005859375,0.0,0.0,0.0
732553606,585444,0,1.00390625,-0.02734375,0.01171875,-0.015625,0.0,0.0,0.0
732554857,585445,0,1.005859375,-0.03515625,0.015625,-0.01953125,0.0,0.0,0.0
732556109,585446,0,1.001953125,-0.033203125,0.01171875,-0.021484375,0.0,0.0,0.0
732557360,585447,0,1.0078125,-0.033203125,0.017578125,-0.015625,0.0,0.0,0.0
732558610,585448,0,1.001953125,-0.037109375,0.017578125,-0.01953125,0.0,0.0,0.0
732559861,585449,0,1.00390625,-0.0390625,0.015625,-0.0234375,0.0,0.0,0.0
732561112,585450,0,1.005859375,-0.037109375,0.009765625,-0.02734375,0.0,0.0,0.0
732562362,585451,0,0.998046875,-0.03515625,0.005859375,-0.029296875,0.0,0.0,0.0
732563613,585452,0,1.001953125,-0.0390625,0.015625,-0.0234375,0.0,0.0,0.0
732564863,585453,0,0.998046875,-0.041015625,0.009765625,-0.03125,0.0,0.0,0.0
732566115,585454,0,1.0078125,-0.04296875,0.01171875,-0.03125,0.0,0.0,0.0
732567366,585455,0,1.0078125,-0.044921875,0.013671875,-0.03125,0.0,0.0,0.0
732568616,585456,0,1.00390625,-0.0390625,0.015625,-0.0234375,0.0,0.0,0.0
732569867,585457,0,1.005859375,-0.044921875,0.01953125,-0.025390625,0.0,0.0,0.0
732571117,585458,0,1.009765625,-0.04296875,0.013671875,-0.029296875,0.0,0.0,0.0
732572367,585459,0,0.99609375,-0.044921875,0.01171875,-0.033203125,0.0,0.0,0.0
732573618,585460,0,1.005859375,-0.044921875,0.017578125,-0.02734375,0.0,0.0,0.0
732574868,585461,0,1.001953125,-0.04296875,0.0078125,-0.03515625,0.0,0.0,0.0
732576120,585462,0,1.001953125,-0.0390625,0.013671875,-0.025390625,0.0,0.0,0.0
732577371,585463,0,0.99609375,-0.041015625,0.015625,-0.025390625,0.0,0.0,0.0
732578621,585464,0,1.01171875,-0.033203125,0.017578125,-0.015625,0.0,0.0,0.0
732579873,585465,0,1.0078125,-0.03515625,0.015625,-0.01953125,0.0,0.0,0.0
732581123,585466,0,1.0,-0.033203125,0.017578125,-0.015625,0.0,0.0,0.0
732582373,585467,0,1.00390625,-0.03515625,0.021484375,-0.013671875,0.0,0.0,0.0
732583623,585468,0,1.001953125,-0.033203125,0.017578125,-0.015625,0.0,0.0,0.0
732584873,585469,0,1.0078125,-0.029296875,0.009765625,-0.01953125,0.0,0.0,0.0
732586125,585470,0,1.005859375,-0.03125,0.017578125,-0.013671875,0.0,0.0,0.0
732587376,585471,0,1.00390625,-0.0234375,0.0234375,0.0,0.0,0.0,0.0
732588626,585472,0,1.001953125,-0.017578125,0.015625,-0.001953125,0.0,0.0,0.0
732589877,585473,0,1.0078125,-0.017578125,0.0234375,0.005859375,0.0,0.0,0.0
732591128,585474,0,1.001953125,-0.017578125,0.021484375,0.00390625,0.0,0.0,0.0
732592378,585475,0,1.005859375,-0.015625,0.021484375,0.005859375,0.0,0.0,0.0
732593629,585476,0,1.00390625,-0.015625,0.021484375,0.005859375,0.0,0.0,0.0
732594880,585477,0,1.001953125,-0.009765625,0.021484375,0.01171875,0.0,0.0,0.0
732596131,585478,0,1.0078125,-0.009765625,0.017578125,0.0078125,0.0,0.0,0.0
732597382,585479,0,1.00390625,-0.009765625,0.0234375,0.013671875,0.0,0.0,0.0
732598632,585480,0,0.998046875,-0.01171875,0.017578125,0.005859375,0.0,0.0,0.0
732599883,585481,0,1.0078125,-0.013671875,0.015625,0.001953125,0.0,0.0,0.0
732601134,585482,0,1.0,-0.01171875,0.01953125,0.0078125,0.0,0.0,0.0
732602384,585483,0,1.0078125,-0.01171875,0.01953125,0.0078125,0.0,0.0,0.0
732603636,585484,0,1.015625,-0.0078125,0.02734375,0.01953125,0.0,0.0,0.0
732604886,585485,0,1.0078125,-0.00390625,0.01953125,0.015625,0.0,0.0,0.0
732606137,585486,0,1.001953125,-0.0078125,0.01953125,0.01171875,0.0,0.0,0.0
732607388,585487,0,1.0078125,-0.0078125,0.021484375,0.013671875,0.0,0.0,0.0
732608639,585488,0,1.001953125,-0.0078125,0.01953125,0.01171875,0.0,0.0,0.0
732609889,585489,0,0.99609375,-0.013671875,0.021484375,0.0078125,0.0,0.0,0.0
732611140,585490,0,1.005859375,-0.01171875,0.017578125,0.005859375,0.0,0.0,0.0
732612392,585491,0,1.0078125,-0.013671875,0.021484375,0.0078125,0.0,0.0,0.0
732613642,585492,0,1.005859375,-0.015625,0.01953125,0.00390625,0.0,0.0,0.0
732614894,585493,0,1.005859375,-0.01953125,0.01953125,0.0,0.0,0.0,0.0
732616145,585494,0,1.0078125,-0.021484375,0.01953125,-0.001953125,0.0,0.0,0.0
732617396,585495,0,1.0,-0.021484375,0.0234375,0.001953125,0.0,0.0,0.0
732618648,585496,0,1.0078125,-0.0234375,0.017578125,-0.005859375,0.0,0.0,0.0
732619899,585497,0,1.00390625,-0.02734375,0.021484375,-0.005859375,0.0,0.0,0.0
732621150,585498,0,1.00390625,-0.029296875,0.015625,-0.013671875,0.0,0.0,0.0
732622400,585499,0,1.001953125,-0.025390625,0.02734375,0.001953125,0.0,0.0,0.0
732623651,585500,0,1.0078125,-0.033203125,0.01171875,-0.021484375,0.0,0.0,0.0
732624902,585501,0,0.994140625,-0.029296875,0.013671875,-0.015625,0.0,0.0,0.0
732626152,585502,0,1.01171875,-0.033203125,0.01953125,-0.013671875,0.0,0.0,0.0
732627402,585503,0,1.00390625,-0.03515625,0.009765625,-0.025390625,0.0,0.0,0.0
732628654,585504,0,1.0078125,-0.033203125,0.01953125,-0.013671875,0.0,0.0,0.0
732629904,585505,0,1.001953125,-0.033203125,0.017578125,-0.015625,0.0,0.0,0.0
732631154,585506,0,1.001953125,-0.03515625,0.01953125,-0.015625,0.0,0.0,0.0
732632405,585507,0,0.9921875,-0.041015625,0.017578125,-0.0234375,0.0,0.0,0.0
732633655,585508,0,1.005859375,-0.037109375,0.017578125,-0.01953125,0.0,0.0,0.0
732634906,585509,0,1.00390625,-0.046875,0.0078125,-0.0390625,0.0,0.0,0.0
732636157,585510,0,1.0,-0.044921875,0.013671875,-0.03125,0.0,0.0,0.0
732637408,585511,0,1.001953125,-0.037109375,0.013671875,-0.0234375,0.0,0.0,0.0
732638659,585512,0,1.005859375,-0.04296875,0.017578125,-0.025390625,0.0,0.0,0.0
732639911,585513,0,1.005859375,-0.04296875,0.01953125,-0.0234375,0.0,0.0,0.0
732641162,585514,0,1.0078125,-0.041015625,0.021484375,-0.01953125,0.0,0.0,0.0
732642414,585515,0,0.998046875,-0.041015625,0.01171875,-0.029296875,0.0,0.0,0.0
732643664,585516,0,1.001953125,-0.037109375,0.015625,-0.021484375,0.0,0.0,0.0
732644916,585517,0,1.00390625,-0.03515625,0.013671875,-0.021484375,0.0,0.0,0.0
732646167,585518,0,1.00390625,-0.033203125,0.017578125,-0.015625,0.0,0.0,0.0
732647417,585519,0,1.0078125,-0.03125,0.01171875,-0.01953125,0.0,0.0,0.0
732648668,585520,0,1.0078125,-0.037109375,0.017578125,-0.01953125,0.0,0.0,0.0
732649919,585521,0,1.0078125,-0.033203125,0.00390625,-0.029296875,0.0,0.0,0.0
732651170,585522,0,1.009765625,-0.02734375,0.01171875,-0.015625,0.0,0.0,0.0
732652421,585523,0,1.009765625,-0.025390625,0.017578125,-0.0078125,0.0,0.0,0.0
732653672,585524,0,1.00390625,-0.0234375,0.01953125,-0.00390625,0.0,0.0,0.0
732654922,585525,0,1.0078125,-0.021484375,0.01953125,-0.001953125,0.0,0.0,0.0
732656173,585526,0,1.001953125,-0.0234375,0.0234375,0.0,0.0,0.0,0.0
732657425,585527,0,1.005859375,-0.0234375,0.01953125,-0.00390625,0.0,0.0,0.0
732658675,585528,0,1.001953125,-0.01953125,0.01953125,0.0,0.0,0.0,0.0
732659927,585529,0,1.005859375,-0.017578125,0.021484375,0.00390625,0.0,0.0,0.0
732661177,585530,0,1.0,-0.01171875,0.0234375,0.01171875,0.0,0.0,0.0
732662429,585531,0,1.0,-0.013671875,0.01953125,0.005859375,0.0,0.0,0.0
732663680,585532,0,1.005859375,-0.0078125,0.0234375,0.015625,0.0,0.0,0.0
732664930,585533,0,1.0,-0.013671875,0.029296875,0.015625,0.0,0.0,0.0
732666180,585534,0,1.001953125,-0.01171875,0.01953125,0.0078125,0.0,0.0,0.0
732667431,585535,0,1.005859375,-0.0078125,0.021484375,0.013671875,0.0,0.0,0.0
732668682,585536,0,1.00390625,-0.01171875,0.01953125,0.0078125,0.0,0.0,0.0
732669933,585537,0,1.00390625,-0.013671875,0.021484375,0.0078125,0.0,0.0,0.0
732671184,585538,0,1.001953125,-0.0078125,0.017578125,0.009765625,0.0,0.0,0.0
732672434,585539,0,1.00390625,-0.0078125,0.01953125,0.01171875,0.0,0.0,0.0
732673685,585540,0,1.005859375,-0.00390625,0.021484375,0.017578125,0.0,0.0,0.0
732674936,585541,0,1.001953125,-0.01171875,0.017578125,0.005859375,0.0,0.0,0.0
732676188,585542,0,1.0078125,-0.01953125,0.015625,-0.00390625,0.0,0.0,0.0
732677439,585543,0,1.001953125,-0.01953125,0.01953125,0.0,0.0,0.0,0.0
732678690,585544,0,1.0,-0.009765625,0.017578125,0.0078125,0.0,0.0,0.0
732679941,585545,0,1.00390625,-0.01953125,0.01953125,0.0,0.0,0.0,0.0
732681192,585546,0,1.0078125,-0.0078125,0.021484375,0.013671875,0.0,0.0,0.0
732682443,585547,0,1.015625,-0.009765625,0.0234375,0.013671875,0.0,0.0,0.0
732683695,585548,0,1.0,-0.017578125,0.01953125,0.001953125,0.0,0.0,0.0
732684945,585549,0,1.005859375,-0.0234375,0.021484375,-0.001953125,0.0,0.0,0.0
732686195,585550,0,1.00390625,-0.01953125,0.01953125,0.0,0.0,0.0,0.0
732687447,585551,0,1.00390625,-0.0234375,0.01953125,-0.00390625,0.0,0.0,0.0
732688697,585552,0,1.0078125,-0.0234375,0.021484375,-0.001953125,0.0,0.0,0.0
732689949,585553,0,1.0078125,-0.03125,0.015625,-0.015625,0.0,0.0,0.0
732691200,585554,0,1.0078125,-0.033203125,0.01953125,-0.013671875,0.0,0.0,0.0
732692452,585555,0,1.0078125,-0.033203125,0.013671875,-0.01953125,0.0,0.0,0.0
732693702,585556,0,1.0,-0.03515625,0.009765625,-0.025390625,0.0,0.0,0.0
732694954,585557,0,1.005859375,-0.03125,0.01953125,-0.01171875,0.0,0.0,0.0
732696205,585558,0,1.00390625,-0.033203125,0.015625,-0.017578125,0.0,0.0,0.0
732697456,585559,0,1.00390625,-0.037109375,0.017578125,-0.01953125,0.0,0.0,0.0
732698708,585560,0,1.009765625,-0.0390625,0.017578125,-0.021484375,0.0,0.0,0.0
732699958,585561,0,1.0078125,-0.0390625,0.017578125,-0.021484375,0.0,0.0,0.0
732701209,585562,0,1.0078125,-0.037109375,0.01953125,-0.017578125,0.0,0.0,0.0
732702459,585563,0,1.001953125,-0.0390625,0.01953125,-0.01953125,0.0,0.0,0.0
732703710,585564,0,1.001953125,-0.0390625,0.013671875,-0.025390625,0.0,0.0,0.0
732704961,585565,0,1.0078125,-0.03515625,0.017578125,-0.017578125,0.0,0.0,0.0
732706212,585566,0,1.001953125,-0.0390625,0.015625,-0.0234375,0.0,0.0,0.0
732707462,585567,0,1.01171875,-0.037109375,0.015625,-0.021484375,0.0,0.0,0.0
732708713,585568,0,1.001953125,-0.037109375,0.01953125,-0.017578125,0.0,0.0,0.0
732709965,585569,0,1.001953125,-0.033203125,0.013671875,-0.01953125,0.0,0.0,0.0
732711216,585570,0,0.994140625,-0.037109375,0.015625,-0.021484375,0.0,0.0,0.0
732712468,585571,0,1.0078125,-0.037109375,0.013671875,-0.0234375,0.0,0.0,0.0
732713719,585572,0,1.001953125,-0.033203125,0.01171875,-0.021484375,0.0,0.0,0.0
732714969,585573,0,1.005859375,-0.033203125,0.017578125,-0.015625,0.0,0.0,0.0
732716221,585574,0,1.0,-0.02734375,0.01953125,-0.0078125,0.0,0.0,0.0
732717471,585575,0,1.0,-0.03125,0.013671875,-0.017578125,0.0,0.0,0.0
732718721,585576,0,1.005859375,-0.03125,0.013671875,-0.017578125,0.0,0.0,0.0
732719972,585577,0,1.005859375,-0.025390625,0.015625,-0.009765625,0.0,0.0,0.0
732721224,585578,0,1.0,-0.0234375,0.01953125,-0.00390625,0.0,0.0,0.0
732722474,585579,0,1.0078125,-0.025390625,0.013671875,-0.01171875,0.0,0.0,0.0
732723724,585580,0,1.0078125,-0.0234375,0.013671875,-0.009765625,0.0,0.0,0.0
732724976,585581,0,1.009765625,-0.0234375,0.01953125,-0.00390625,0.0,0.0,0.0
732726226,585582,0,1.001953125,-0.017578125,0.017578125,0.0,0.0,0.0,0.0
732727476,585583,0,1.00390625,-0.017578125,0.013671875,-0.00390625,0.0,0.0,0.0
732728728,585584,0,1.0,-0.01953125,0.02734375,0.0078125,0.0,0.0,-7.468944886391349e+28
732731230,585586,0,1.00390625,-0.01953125,0.021484375,0.001953125,0.0,0.0,0.0
732732481,585587,0,1.0,-0.005859375,0.01953125,0.013671875,0.0,0.0,0.0
732733732,585588,0,1.001953125,-0.009765625,0.017578125,0.0078125,0.0,0.0,0.0
732734983,585589,0,1.0,-0.01171875,0.025390625,0.013671875,0.0,0.0,0.0
732736235,585590,0,1.001953125,-0.01171875,0.015625,0.00390625,0.0,0.0,0.0
732737485,585591,0,0.998046875,-0.01171875,0.013671875,0.001953125,0.0,0.0,0.0
732738736,585592,0,1.01171875,-0.01171875,0.017578125,0.005859375,0.0,0.0,0.0
732739987,585593,0,1.0078125,-0.009765625,0.025390625,0.015625,0.0,0.0,0.0
732741237,585594,0,1.005859375,-0.009765625,0.017578125,0.0078125,0.0,0.0,0.0
732742488,585595,0,1.00390625,-0.017578125,0.021484375,0.00390625,0.0,0.0,0.0
732743738,585596,0,1.00390625,-0.017578125,0.01953125,0.001953125,0.0,0.0,0.0
732744989,585597,0,1.0078125,-0.017578125,0.01953125,0.001953125,0.0,0.0,0.0
732746239,585598,0,1.00390625,-0.01171875,0.01953125,0.0078125,0.0,0.0,0.0
732747490,585599,0,1.001953125,-0.015625,0.01953125,0.00390625,0.0,0.0,0.0
732748741,585600,0,1.001953125,-0.017578125,0.021484375,0.00390625,0.0,0.0,0.0
732749991,585601,0,1.0078125,-0.017578125,0.01953125,0.001953125,0.0,0.0,0.0
732751242,585602,0,0.998046875,-0.021484375,0.015625,-0.005859375,0.0,0.0,0.0
732752493,585603,0,1.00390625,-0.01953125,0.017578125,-0.001953125,0.0,0.0,0.0
732753745,585604,0,0.998046875,-0.025390625,0.017578125,-0.0078125,0.0,0.0,0.0
732754995,585605,0,1.009765625,-0.02734375,0.021484375,-0.005859375,0.0,0.0,0.0
732756247,585606,0,1.00390625,-0.02734375,0.015625,-0.01171875,0.0,0.0,0.0
732757498,585607,0,1.001953125,-0.025390625,0.005859375,-0.01953125,0.0,0.0,0.0
732758749,585608,0,1.005859375,-0.03125,0.01953125,-0.01171875,0.0,0.0,0.0
732760000,585609,0,0.998046875,-0.029296875,0.01953125,-0.009765625,0.0,0.0,0.0
732761250,585610,0,1.0078125,-0.03125,0.015625,-0.015625,0.0,0.0,0.0
732762501,585611,0,1.00390625,-0.03125,0.017578125,-0.013671875,0.0,0.0,0.0
732763752,585612,0,1.0078125,-0.03515625,0.013671875,-0.021484375,0.0,0.0,0.0
732765003,585613,0,1.00390625,-0.03515625,0.015625,-0.01953125,0.0,0.0,0.0
732766254,585614,0,1.001953125,-0.03515625,0.015625,-0.01953125,0.0,0.0,0.0
732767504,585615,0,1.0078125,-0.037109375,0.01953125,-0.017578125,0.0,0.0,0.0
732768755,585616,0,1.0078125,-0.037109375,0.01171875,-0.025390625,0.0,0.0,0.0
732770006,585617,0,1.0078125,-0.037109375,0.01953125,-0.017578125,0.0,0.0,0.0
732771257,585618,0,1.0,-0.037109375,0.015625,-0.021484375,0.0,0.0,0.0
732772508,585619,0,1.005859375,-0.037109375,0.009765625,-0.02734375,0.0,0.0,0.0
732773760,585620,0,1.001953125,-0.03515625,0.01171875,-0.0234375,0.0,0.0,0.0
732775010,585621,0,0.994140625,-0.03515625,0.017578125,-0.017578125,0.0,0.0,0.0
732776261,585622,0,1.0078125,-0.037109375,0.013671875,-0.0234375,0.0,0.0,0.0
732777513,585623,0,1.00390625,-0.03515625,0.013671875,-0.021484375,0.0,0.0,0.0
732778763,585624,0,1.0,-0.03125,0.01953125,-0.01171875,0.0,0.0,0.0
732780014,585625,0,1.001953125,-0.029296875,0.01953125,-0.009765625,0.0,0.0,0.0
732781271,585626,0,0.998046875,-0.03125,0.013671875,-0.017578125,0.0,0.0,0.0
732782522,585627,0,1.001953125,-0.029296875,0.01953125,-0.009765625,0.0,0.0,0.0
732783774,585628,0,1.0078125,-0.025390625,0.01953125,-0.005859375,0.0,0.0,0.0
732785024,585629,0,1.005859375,-0.03125,0.009765625,-0.021484375,0.0,0.0,0.0
732786275,585630,0,0.998046875,-0.029296875,0.01953125,-0.009765625,0.0,0.0,0.0
732787527,585631,0,1.0078125,-0.0234375,0.021484375,-0.001953125,0.0,0.0,0.0
732788778,585632,0,1.00390625,-0.025390625,0.01953125,-0.005859375,0.0,0.0,0.0
732790028,585633,0,1.001953125,-0.021484375,0.01953125,-0.001953125,0.0,0.0,0.0
732791278,585634,0,1.001953125,-0.021484375,0.017578125,-0.00390625,0.0,0.0,0.0
732792528,585635,0,1.0,-0.01953125,0.01953125,0.0,0.0,0.0,0.0
732793780,585636,0,0.998046875,-0.01953125,0.01953125,0.0,0.0,0.0,0.0
732795031,585637,0,1.001953125,-0.013671875,0.017578125,0.00390625,0.0,0.0,0.0
732796282,585638,0,1.001953125,-0.01953125,0.017578125,-0.001953125,0.0,0.0,0.0
732797533,585639,0,1.00390625,-0.017578125,0.015625,-0.001953125,0.0,0.0,0.0
732798784,585640,0,1.005859375,-0.015625,0.021484375,0.005859375,0.0,0.0,0.0
732800034,585641,0,1.00390625,-0.013671875,0.017578125,0.00390625,0.0,0.0,0.0
732801284,585642,0,1.005859375,-0.015625,0.021484375,0.005859375,0.0,0.0,0.0
732802536,585643,0,1.00390625,-0.01171875,0.015625,0.00390625,0.0,0.0,0.0
732803787,585644,0,1.00390625,-0.013671875,0.01953125,0.005859375,0.0,0.0,0.0
732805038,585645,0,1.001953125,-0.013671875,0.021484375,0.0078125,0.0,0.0,0.0
732806288,585646,0,1.00390625,-0.013671875,0.021484375,0.0078125,0.0,0.0,0.0
732807539,585647,0,1.009765625,-0.013671875,0.017578125,0.00390625,0.0,0.0,0.0
732808790,585648,0,1.0,-0.015625,0.0234375,0.0078125,0.0,0.0,0.0
732810040,585649,0,1.015625,-0.013671875,0.029296875,0.015625,0.0,0.0,0.0
732811290,585650,0,1.00390625,-0.017578125,0.02734375,0.009765625,0.0,0.0,0.0
732812542,585651,0,1.00390625,-0.015625,0.013671875,-0.001953125,0.0,0.0,0.0
732813793,585652,0,0.99609375,-0.01953125,0.025390625,0.005859375,0.0,0.0,0.0
732815044,585653,0,1.005859375,-0.0234375,0.017578125,-0.005859375,0.0,0.0,0.0
732816295,585654,0,1.0,-0.021484375,0.01171875,-0.009765625,0.0,0.0,0.0
732817546,585655,0,1.0078125,-0.01953125,0.021484375,0.001953125,0.0,0.0,0.0
732818796,585656,0,1.009765625,-0.021484375,0.015625,-0.005859375,0.0,0.0,0.0
732820048,585657,0,1.005859375,-0.0234375,0.01953125,-0.00390625,0.0,0.0,0.0
732821299,585658,0,1.0,-0.025390625,0.017578125,-0.0078125,0.0,0.0,0.0
732822549,585659,0,1.0,-0.02734375,0.013671875,-0.013671875,0.0,0.0,0.0
732823801,585660,0,1.001953125,-0.025390625,0.01953125,-0.005859375,0.0,0.0,0.0
732825051,585661,0,1.001953125,-0.0234375,0.015625,-0.0078125,0.0,0.0,0.0
732826301,585662,0,1.001953125,-0.03125,0.017578125,-0.013671875,0.0,0.0,0.0
732827552,585663,0,0.998046875,-0.033203125,0.021484375,-0.01171875,0.0,0.0,0.0
732828803,585664,0,1.01171875,-0.03125,0.015625,-0.015625,0.0,0.0,0.0
732830054,585665,0,1.0078125,-0.03125,0.01171875,-0.01953125,0.0,0.0,0.0
732831305,585666,0,1.005859375,-0.03515625,0.021484375,-0.013671875,0.0,0.0,0.0
732832556,585667,0,1.0078125,-0.03515625,0.01953125,-0.015625,0.0,0.0,0.0
732833807,585668,0,1.001953125,-0.033203125,0.015625,-0.017578125,0.0,0.0,0.0
732835059,585669,0,0.99609375,-0.02734375,0.013671875,-0.013671875,0.0,0.0,0.0
732836310,585670,0,0.998046875,-0.037109375,0.01171875,-0.025390625,0.0,0.0,0.0
732837560,585671,0,1.013671875,-0.03125,0.013671875,-0.017578125,0.0,0.0,0.0
732838810,585672,0,1.0078125,-0.037109375,0.0234375,-0.013671875,0.0,0.0,0.0
732840061,585673,0,1.001953125,-0.037109375,0.01171875,-0.025390625,0.0,0.0,0.0
732841311,585674,0,1.001953125,-0.033203125,0.015625,-0.017578125,0.0,0.0,0.0
732842563,585675,0,1.009765625,-0.033203125,0.0078125,-0.025390625,0.0,0.0,0.0
732843813,585676,0,1.01171875,-0.0390625,0.017578125,-0.021484375,0.0,0.0,0.0
732845065,585677,0,1.0078125,-0.03515625,0.0078125,-0.02734375,0.0,0.0,0.0
732846316,585678,0,1.005859375,-0.03125,0.01171875,-0.01953125,0.0,0.0,0.0
732847566,585679,0,1.00390625,-0.03515625,0.013671875,-0.021484375,0.0,0.0,0.0
732848817,585680,0,1.0078125,-0.02734375,0.013671875,-0.013671875,0.0,0.0,0.0
732850067,585681,0,1.0078125,-0.029296875,0.01953125,-0.009765625,0.0,0.0,0.0
732851317,585682,0,1.00390625,-0.03125,0.017578125,-0.013671875,0.0,0.0,0.0
732852567,585683,0,1.0,-0.02734375,0.01953125,-0.0078125,0.0,0.0,0.0
732853818,585684,0,1.0078125,-0.02734375,0.013671875,-0.013671875,0.0,0.0,0.0
732855070,585685,0,0.998046875,-0.021484375,0.015625,-0.005859375,0.0,0.0,0.0
732856321,585686,0,1.005859375,-0.025390625,0.015625,-0.009765625,0.0,0.0,0.0
732857571,585687,0,1.00390625,-0.02734375,0.0234375,-0.00390625,0.0,0.0,0.0
732858821,585688,0,1.00390625,-0.025390625,0.017578125,-0.0078125,0.0,0.0,0.0
732860071,585689,0,1.005859375,-0.021484375,0.021484375,0.0,0.0,0.0,0.0
732861322,585690,0,1.0,-0.0234375,0.01953125,-0.00390625,0.0,0.0,0.0
732862572,585691,0,1.013671875,-0.02734375,0.013671875,-0.013671875,0.0,0.0,0.0
732863823,585692,0,1.001953125,-0.0234375,0.017578125,-0.005859375,0.0,0.0,0.0
732865075,585693,0,1.0078125,-0.021484375,0.013671875,-0.0078125,0.0,0.0,0.0
732866326,585694,0,1.00390625,-0.01953125,0.02734375,0.0078125,0.0,0.0,0.0
732867577,585695,0,1.0,-0.01953125,0.021484375,0.001953125,0.0,0.0,0.0
732868829,585696,0,1.001953125,-0.01953125,0.021484375,0.001953125,0.0,0.0,0.0
732870079,585697,0,1.013671875,-0.017578125,0.0234375,0.005859375,0.0,0.0,0.0
732871329,585698,0,1.001953125,-0.015625,0.01953125,0.00390625,0.0,0.0,0.0
732872580,585699,0,1.001953125,-0.01171875,0.021484375,0.009765625,0.0,0.0,0.0
732873831,585700,0,1.0078125,-0.017578125,0.017578125,0.0,0.0,0.0,0.0
732875082,585701,0,1.001953125,-0.01171875,0.015625,0.00390625,0.0,0.0,0.0
732876333,585702,0,1.0078125,-0.013671875,0.017578125,0.00390625,0.0,0.0,0.0
732877584,585703,0,1.0,-0.015625,0.01953125,0.00390625,0.0,0.0,0.0
732878835,585704,0,1.005859375,-0.017578125,0.017578125,0.0,0.0,0.0,0.0
732880087,585705,0,1.0078125,-0.021484375,0.01953125,-0.001953125,0.0,0.0,0.0
732881338,585706,0,1.00390625,-0.017578125,0.017578125,0.0,0.0,0.0,0.0
732882590,585707,0,1.001953125,-0.017578125,0.021484375,0.00390625,0.0,0.0,0.0
732883841,585708,0,1.00390625,-0.015625,0.015625,0.0,0.0,0.0,0.0
732885092,585709,0,1.001953125,-0.021484375,0.013671875,-0.0078125,0.0,0.0,0.0
732886343,585710,0,1.009765625,-0.017578125,0.01953125,0.001953125,0.0,0.0,0.0
732887595,585711,0,0.998046875,-0.01953125,0.021484375,0.001953125,0.0,0.0,0.0
732888845,585712,0,1.00390625,-0.025390625,0.015625,-0.009765625,0.0,0.0,0.0
732890097,585713,0,1.009765625,-0.021484375,0.0234375,0.001953125,0.0,0.0,0.0
732891348,585714,0,1.00390625,-0.0234375,0.017578125,-0.005859375,0.0,0.0,0.0
732892600,585715,0,1.001953125,-0.025390625,0.01171875,-0.013671875,0.0,0.0,0.0
732893850,585716,0,1.009765625,-0.025390625,0.015625,-0.009765625,0.0,0.0,0.0
732895101,585717,0,1.0078125,-0.03125,0.013671875,-0.017578125,0.0,0.0,0.0
732896351,585718,0,1.005859375,-0.03125,0.01953125,-0.01171875,0.0,0.0,0.0
732897602,585719,0,1.005859375,-0.02734375,0.021484375,-0.005859375,0.0,0.0,0.0
732898853,585720,0,1.00390625,-0.025390625,0.015625,-0.009765625,0.0,0.0,0.0
732900104,585721,0,1.001953125,-0.03125,0.015625,-0.015625,0.0,0.0,0.0
732901355,585722,0,1.00390625,-0.033203125,0.017578125,-0.015625,0.0,0.0,0.0
732902606,585723,0,1.0078125,-0.029296875,0.01171875,-0.017578125,0.0,0.0,0.0
