t_us,frame_id,sensor_id,accX,accY,accZ,acc_sum_YZ,magX,magY,magZ
61673902,49125,0,0.99609375,-0.033203125,0.017578125,-0.015625,0.0,0.0,0.0
61675153,49126,0,1.005859375,-0.037109375,0.017578125,-0.01953125,0.0,0.0,0.0
61676403,49127,0,1.001953125,-0.029296875,0.017578125,-0.01171875,0.0,0.0,0.0
61677655,49128,0,0.998046875,-0.029296875,0.015625,-0.013671875,0.0,0.0,0.0
61678905,49129,0,1.001953125,-0.029296875,0.0234375,-0.005859375,0.0,0.0,-1.8307392597198486
61681407,49131,0,1.0078125,-0.029296875,0.015625,-0.013671875,0.0,0.0,0.0
61682658,49132,0,1.001953125,-0.029296875,0.0234375,-0.005859375,0.0,0.0,0.0
61683909,49133,0,1.00390625,-0.029296875,0.017578125,-0.01171875,0.0,0.0,0.0
61685159,49134,0,1.00390625,-0.029296875,0.01953125,-0.009765625,0.0,0.0,0.0
61686409,49135,0,1.00390625,-0.03125,0.01953125,-0.01171875,0.0,0.0,0.0
61687661,49136,0,1.00390625,-0.03125,0.021484375,-0.009765625,0.0,0.0,0.0
61688911,49137,0,1.005859375,-0.029296875,0.021484375,-0.0078125,0.0,0.0,0.0
61690161,49138,0,1.0078125,-0.03515625,0.017578125,-0.017578125,0.0,0.0,0.0
61691411,49139,0,1.00390625,-0.03125,0.021484375,-0.009765625,0.0,0.0,0.0
61692663,49140,0,1.0078125,-0.033203125,0.0078125,-0.025390625,0.0,0.0,0.0
61693913,49141,0,1.005859375,-0.033203125,0.013671875,-0.01953125,0.0,0.0,0.0
61695164,49142,0,1.009765625,-0.03125,0.017578125,-0.013671875,0.0,0.0,0.0
61696415,49143,0,1.013671875,-0.033203125,0.009765625,-0.0234375,0.0,0.0,0.0
61697666,49144,0,1.005859375,-0.029296875,0.01953125,-0.009765625,0.0,0.0,0.0
61698916,49145,0,1.00390625,-0.029296875,0.009765625,-0.01953125,0.0,0.0,0.0
61700167,49146,0,1.0078125,-0.03125,0.0234375,-0.0078125,0.0,0.0,0.0
61701417,49147,0,1.0078125,-0.029296875,0.01953125,-0.009765625,0.0,0.0,0.0
61702668,49148,0,1.005859375,-0.037109375,0.01953125,-0.017578125,0.0,0.0,0.0
61703920,49149,0,1.005859375,-0.033203125,0.013671875,-0.01953125,0.0,0.0,0.0
61705171,49150,0,1.009765625,-0.03125,0.015625,-0.015625,0.0,0.0,0.0
61706421,49151,0,1.01171875,-0.033203125,0.01171875,-0.021484375,0.0,0.0,0.0
61707672,49152,0,1.0078125,-0.029296875,0.009765625,-0.01953125,0.0,0.0,0.0
61708924,49153,0,0.998046875,-0.033203125,0.013671875,-0.01953125,0.0,0.0,0.0
61710174,49154,0,1.001953125,-0.033203125,0.013671875,-0.01953125,0.0,0.0,0.0
61711425,49155,0,1.00390625,-0.03515625,0.01953125,-0.015625,0.0,0.0,0.0
61712677,49156,0,0.998046875,-0.03125,0.01953125,-0.01171875,0.0,0.0,0.0
61713927,49157,0,0.998046875,-0.033203125,0.01953125,-0.013671875,0.0,0.0,0.0
61715177,49158,0,1.005859375,-0.03515625,0.01953125,-0.015625,0.0,0.0,0.0
61716429,49159,0,0.998046875,-0.029296875,0.017578125,-0.01171875,0.0,0.0,0.0
61717679,49160,0,1.001953125,-0.03125,0.0234375,-0.0078125,0.0,0.0,0.0
61718931,49161,0,0.99609375,-0.033203125,0.013671875,-0.01953125,0.0,0.0,0.0
61720181,49162,0,0.99609375,-0.029296875,0.021484375,-0.0078125,0.0,0.0,0.0
61721431,49163,0,1.001953125,-0.03125,0.015625,-0.015625,0.0,0.0,0.0
61722683,49164,0,1.005859375,-0.02734375,0.01171875,-0.015625,0.0,0.0,0.0
61723933,49165,0,0.99609375,-0.029296875,0.017578125,-0.01171875,0.0,0.0,0.0
61725183,49166,0,1.013671875,-0.033203125,0.0234375,-0.009765625,0.0,0.0,0.0
61726434,49167,0,1.01171875,-0.02734375,0.013671875,-0.013671875,0.0,0.0,0.0
61727685,49168,0,0.99609375,-0.03125,0.017578125,-0.013671875,0.0,0.0,0.0
61728936,49169,0,1.00390625,-0.029296875,0.01953125,-0.009765625,0.0,0.0,0.0
61730186,49170,0,1.00390625,-0.03125,0.017578125,-0.013671875,0.0,0.0,0.0
61731437,49171,0,1.001953125,-0.033203125,0.017578125,-0.015625,0.0,0.0,0.0
61732687,49172,0,1.001953125,-0.029296875,0.015625,-0.013671875,0.0,0.0,0.0
61733937,49173,0,0.998046875,-0.029296875,0.015625,-0.013671875,0.0,0.0,0.0
61735188,49174,0,1.00390625,-0.029296875,0.021484375,-0.0078125,0.0,0.0,0.0
61736440,49175,0,0.998046875,-0.03125,0.01953125,-0.01171875,0.0,0.0,0.0
61737690,49176,0,0.998046875,-0.03125,0.021484375,-0.009765625,0.0,0.0,0.0
61738942,49177,0,1.00390625,-0.029296875,0.0234375,-0.005859375,0.0,0.0,0.0
61740193,49178,0,1.00390625,-0.029296875,0.015625,-0.013671875,0.0,0.0,0.0
61741445,49179,0,0.998046875,-0.03515625,0.021484375,-0.013671875,0.0,0.0,0.0
61742695,49180,0,1.0,-0.029296875,0.01953125,-0.009765625,0.0,0.0,0.0
61743947,49181,0,1.005859375,-0.03515625,0.0234375,-0.01171875,0.0,0.0,0.0
61745198,49182,0,1.00390625,-0.033203125,0.01953125,-0.013671875,0.0,0.0,0.0
61746450,49183,0,0.99609375,-0.025390625,0.017578125,-0.0078125,0.0,0.0,0.0
61747700,49184,0,0.99609375,-0.029296875,0.013671875,-0.015625,0.0,0.0,0.0
61748952,49185,0,1.0078125,-0.03125,0.015625,-0.015625,0.0,0.0,0.0
61750203,49186,0,1.013671875,-0.03125,0.017578125,-0.013671875,0.0,0.0,0.0
61751454,49187,0,1.0,-0.033203125,0.01171875,-0.021484375,0.0,0.0,0.0
61752705,49188,0,0.998046875,-0.03125,0.021484375,-0.009765625,0.0,0.0,0.0
61753957,49189,0,0.998046875,-0.02734375,0.017578125,-0.009765625,0.0,0.0,0.0
61755207,49190,0,1.001953125,-0.029296875,0.01953125,-0.009765625,0.0,0.0,0.0
61756459,49191,0,1.00390625,-0.03125,0.0234375,-0.0078125,0.0,0.0,0.0
61757709,49192,0,1.001953125,-0.037109375,0.01953125,-0.017578125,0.0,0.0,0.0
61758959,49193,0,1.0078125,-0.033203125,0.015625,-0.017578125,0.0,0.0,0.0
61760209,49194,0,1.005859375,-0.033203125,0.01953125,-0.013671875,0.0,0.0,0.0
61761459,49195,0,1.005859375,-0.029296875,0.021484375,-0.0078125,0.0,0.0,0.0
61762711,49196,0,1.001953125,-0.03125,0.015625,-0.015625,0.0,0.0,0.0
61763961,49197,0,1.001953125,-0.033203125,0.017578125,-0.015625,0.0,0.0,0.0
61765213,49198,0,1.0,-0.02734375,0.01953125,-0.0078125,0.0,0.0,0.0
61766464,49199,0,0.99609375,-0.03125,0.0234375,-0.0078125,0.0,0.0,0.0
61767715,49200,0,1.005859375,-0.03515625,0.021484375,-0.013671875,0.0,0.0,0.0
61768966,49201,0,1.005859375,-0.033203125,0.017578125,-0.015625,0.0,0.0,0.0
61770216,49202,0,1.0,-0.033203125,0.021484375,-0.01171875,0.0,0.0,0.0
61771467,49203,0,1.0,-0.03515625,0.021484375,-0.013671875,0.0,0.0,0.0
61772718,49204,0,1.00390625,-0.03515625,0.01953125,-0.015625,0.0,0.0,0.0
61773968,49205,0,1.009765625,-0.03515625,0.0234375,-0.01171875,0.0,0.0,0.0
61775219,49206,0,0.99609375,-0.033203125,0.017578125,-0.015625,0.0,0.0,0.0
61776470,49207,0,0.99609375,-0.033203125,0.021484375,-0.01171875,0.0,0.0,0.0
61777721,49208,0,0.998046875,-0.03125,0.01953125,-0.01171875,0.0,0.0,0.0
61778971,49209,0,0.998046875,-0.03515625,0.01171875,-0.0234375,0.0,0.0,0.0
61780223,49210,0,1.009765625,-0.03125,0.01953125,-0.01171875,0.0,0.0,0.0
61781473,49211,0,1.00390625,-0.029296875,0.013671875,-0.015625,0.0,0.0,0.0
61782723,49212,0,1.00390625,-0.03125,0.01171875,-0.01953125,0.0,0.0,0.0
61783975,49213,0,1.00390625,-0.029296875,0.015625,-0.013671875,0.0,0.0,0.0
61785226,49214,0,1.001953125,-0.03125,0.01953125,-0.01171875,0.0,0.0,0.0
61786476,49215,0,1.005859375,-0.03125,0.01953125,-0.01171875,0.0,0.0,0.0
61787728,49216,0,1.00390625,-0.02734375,0.009765625,-0.017578125,0.0,0.0,0.0
61788979,49217,0,1.00390625,-0.033203125,0.021484375,-0.01171875,0.0,0.0,0.0
61790229,49218,0,1.0,-0.03125,0.01953125,-0.01171875,0.0,0.0,0.0
61791481,49219,0,1.005859375,-0.02734375,0.013671875,-0.013671875,0.0,0.0,0.0
61792731,49220,0,1.005859375,-0.033203125,0.021484375,-0.01171875,0.0,0.0,0.0
61793981,49221,0,1.001953125,-0.033203125,0.013671875,-0.01953125,0.0,0.0,0.0
61795232,49222,0,0.998046875,-0.02734375,0.017578125,-0.009765625,0.0,0.0,0.0
61796483,49223,0,1.00390625,-0.03515625,0.015625,-0.01953125,0.0,0.0,0.0
61797734,49224,0,0.99609375,-0.03125,0.017578125,-0.013671875,0.0,0.0,0.0
61798986,49225,0,0.998046875,-0.02734375,0.017578125,-0.009765625,0.0,0.0,0.0
61800236,49226,0,1.015625,-0.029296875,0.01171875,-0.017578125,0.0,0.0,0.0
61801486,49227,0,1.005859375,-0.025390625,0.017578125,-0.0078125,0.0,0.0,0.0
61802737,49228,0,1.009765625,-0.03125,0.01953125,-0.01171875,0.0,0.0,0.0
61803987,49229,0,1.00390625,-0.029296875,0.021484375,-0.0078125,0.0,0.0,0.0
61805238,49230,0,0.99609375,-0.03515625,0.01171875,-0.0234375,0.0,0.0,0.0
61806489,49231,0,1.0,-0.03125,0.017578125,-0.013671875,0.0,0.0,0.0
61807740,49232,0,1.0,-0.02734375,0.017578125,-0.009765625,0.0,0.0,0.0
61808991,49233,0,1.00390625,-0.025390625,0.017578125,-0.0078125,0.0,0.0,0.0
61810241,49234,0,1.0078125,-0.029296875,0.01171875,-0.017578125,0.0,0.0,0.0
61811492,49235,0,1.0078125,-0.029296875,0.017578125,-0.01171875,0.0,0.0,0.0
61812744,49236,0,1.0,-0.03515625,0.015625,-0.01953125,0.0,0.0,0.0
61813994,49237,0,1.0,-0.03515625,0.01953125,-0.015625,0.0,0.0,0.0
61815245,49238,0,0.998046875,-0.033203125,0.017578125,-0.015625,0.0,0.0,0.0
61816496,49239,0,0.998046875,-0.03515625,0.015625,-0.01953125,0.0,0.0,0.0
61817747,49240,0,1.0078125,-0.02734375,0.017578125,-0.009765625,0.0,0.0,0.0
61818998,49241,0,1.005859375,-0.03515625,0.015625,-0.01953125,0.0,0.0,0.0
61820249,49242,0,1.001953125,-0.02734375,0.017578125,-0.009765625,0.0,0.0,0.0
61821499,49243,0,1.001953125,-0.03125,0.015625,-0.015625,0.0,0.0,0.0
61822751,49244,0,1.009765625,-0.029296875,0.015625,-0.013671875,0.0,0.0,0.0
61824002,49245,0,1.005859375,-0.029296875,0.021484375,-0.0078125,0.0,0.0,0.0
61825253,49246,0,1.005859375,-0.02734375,0.0234375,-0.00390625,0.0,0.0,0.0
61826503,49247,0,0.99609375,-0.03125,0.021484375,-0.009765625,0.0,0.0,0.0
61827755,49248,0,0.998046875,-0.025390625,0.021484375,-0.00390625,0.0,0.0,0.0
61829005,49249,0,1.009765625,-0.029296875,0.0234375,-0.005859375,0.0,0.0,0.0
61830256,49250,0,1.001953125,-0.02734375,0.017578125,-0.009765625,0.0,0.0,0.0
61831506,49251,0,1.001953125,-0.029296875,0.015625,-0.013671875,0.0,0.0,0.0
61832757,49252,0,1.01171875,-0.029296875,0.017578125,-0.01171875,0.0,0.0,0.0
61834008,49253,0,1.001953125,-0.03515625,0.01953125,-0.015625,0.0,0.0,0.0
61835258,49254,0,1.009765625,-0.03125,0.021484375,-0.009765625,0.0,0.0,0.0
61836508,49255,0,1.001953125,-0.033203125,0.017578125,-0.015625,0.0,0.0,0.0
61837759,49256,0,1.001953125,-0.033203125,0.015625,-0.017578125,0.0,0.0,0.0
61839009,49257,0,1.0078125,-0.029296875,0.021484375,-0.0078125,0.0,0.0,0.0
61840259,49258,0,1.0078125,-0.02734375,0.021484375,-0.005859375,0.0,0.0,0.0
61841510,49259,0,1.0078125,-0.03125,0.01953125,-0.01171875,0.0,0.0,0.0
61842762,49260,0,1.00390625,-0.025390625,0.01953125,-0.005859375,0.0,0.0,0.0
61844012,49261,0,0.998046875,-0.03515625,0.021484375,-0.013671875,0.0,0.0,0.0
61845271,49262,0,1.0,-0.029296875,0.013671875,-0.015625,0.0,0.0,0.0
61846521,49263,0,1.0078125,-0.029296875,0.017578125,-0.01171875,0.0,0.0,0.0
61847773,49264,0,1.001953125,-0.02734375,0.017578125,-0.009765625,0.0,0.0,0.0
61849023,49265,0,1.001953125,-0.03125,0.01953125,-0.01171875,0.0,0.0,0.0
61850274,49266,0,1.0,-0.03515625,0.013671875,-0.021484375,0.0,0.0,0.0
61851525,49267,0,1.005859375,-0.033203125,0.015625,-0.017578125,0.0,0.0,0.0
61852776,49268,0,1.01171875,-0.029296875,0.0234375,-0.005859375,0.0,0.0,0.0
61854026,49269,0,1.001953125,-0.02734375,0.021484375,-0.005859375,0.0,0.0,0.0
61855276,49270,0,1.001953125,-0.029296875,0.025390625,-0.00390625,0.0,0.0,0.0
61856527,49271,0,1.005859375,-0.029296875,0.015625,-0.013671875,0.0,0.0,0.0
61857778,49272,0,1.00390625,-0.033203125,0.013671875,-0.01953125,0.0,0.0,0.0
61859029,49273,0,1.00390625,-0.029296875,0.01171875,-0.017578125,0.0,0.0,0.0
61860280,49274,0,1.005859375,-0.033203125,0.01953125,-0.013671875,0.0,0.0,0.0
61861531,49275,0,1.0078125,-0.033203125,0.017578125,-0.015625,0.0,0.0,0.0
61862783,49276,0,0.998046875,-0.03125,0.01953125,-0.01171875,0.0,0.0,0.0
61864034,49277,0,1.0078125,-0.029296875,0.029296875,0.0,0.0,0.0,0.0
61865286,49278,0,1.00390625,-0.029296875,0.01953125,-0.009765625,0.0,0.0,0.0
61866537,49279,0,1.005859375,-0.033203125,0.021484375,-0.01171875,0.0,0.0,0.0
61867789,49280,0,1.00390625,-0.029296875,0.017578125,-0.01171875,0.0,0.0,0.0
61869039,49281,0,0.998046875,-0.03125,0.015625,-0.015625,0.0,0.0,0.0
61870289,49282,0,1.001953125,-0.033203125,0.017578125,-0.015625,0.0,0.0,0.0
61871541,49283,0,1.0078125,-0.03125,0.013671875,-0.017578125,0.0,0.0,0.0
61872792,49284,0,1.001953125,-0.033203125,0.015625,-0.017578125,0.0,0.0,0.0
61874044,49285,0,0.998046875,-0.03125,0.009765625,-0.021484375,0.0,0.0,0.0
61875294,49286,0,1.00390625,-0.03125,0.017578125,-0.013671875,0.0,0.0,0.0
61876544,49287,0,1.001953125,-0.03125,0.013671875,-0.017578125,0.0,0.0,0.0
61877795,49288,0,1.001953125,-0.029296875,0.01953125,-0.009765625,0.0,0.0,0.0
61879045,49289,0,1.00390625,-0.033203125,0.01171875,-0.021484375,0.0,0.0,0.0
61880295,49290,0,1.005859375,-0.033203125,0.015625,-0.017578125,0.0,0.0,0.0
61881546,49291,0,1.0078125,-0.02734375,0.017578125,-0.009765625,0.0,0.0,0.0
61882797,49292,0,1.00390625,-0.03125,0.01171875,-0.01953125,0.0,0.0,0.0
61884048,49293,0,1.001953125,-0.03125,0.0234375,-0.0078125,0.0,0.0,0.0
61885299,49294,0,1.005859375,-0.02734375,0.009765625,-0.017578125,0.0,0.0,0.0
61886550,49295,0,1.0078125,-0.03125,0.021484375,-0.009765625,0.0,0.0,0.0
61887800,49296,0,1.009765625,-0.03125,0.015625,-0.015625,0.0,0.0,0.0
61889052,49297,0,0.998046875,-0.03515625,0.01953125,-0.015625,0.0,0.0,0.0
61890303,49298,0,1.001953125,-0.029296875,0.021484375,-0.0078125,0.0,0.0,0.0
61891554,49299,0,0.998046875,-0.03125,0.015625,-0.015625,0.0,0.0,0.0
61892805,49300,0,1.005859375,-0.029296875,0.01953125,-0.009765625,0.0,0.0,0.0
61894057,49301,0,1.00390625,-0.033203125,0.01953125,-0.013671875,0.0,0.0,0.0
61895308,49302,0,1.005859375,-0.03125,0.013671875,-0.017578125,0.0,0.0,0.0
61896560,49303,0,1.0,-0.029296875,0.015625,-0.013671875,0.0,0.0,0.0
61897811,49304,0,1.00390625,-0.033203125,0.0234375,-0.009765625,0.0,0.0,0.0
61899063,49305,0,1.001953125,-0.03515625,0.013671875,-0.021484375,0.0,0.0,0.0
61900314,49306,0,1.005859375,-0.033203125,0.015625,-0.017578125,0.0,0.0,0.0
61901565,49307,0,1.0078125,-0.033203125,0.02734375,-0.005859375,0.0,0.0,0.0
61902816,49308,0,1.005859375,-0.033203125,0.009765625,-0.0234375,0.0,0.0,0.0
61904066,49309,0,1.0,-0.025390625,0.015625,-0.009765625,0.0,0.0,0.0
61905318,49310,0,1.005859375,-0.03125,0.01953125,-0.01171875,0.0,0.0,0.0
61906569,49311,0,1.0078125,-0.03515625,0.015625,-0.01953125,0.0,0.0,0.0
61907819,49312,0,1.01171875,-0.033203125,0.013671875,-0.01953125,0.0,0.0,0.0
61909070,49313,0,0.994140625,-0.03515625,0.01953125,-0.015625,0.0,0.0,0.0
61910321,49314,0,0.994140625,-0.03515625,0.013671875,-0.021484375,0.0,0.0,0.0
61911572,49315,0,1.0,-0.0390625,0.005859375,-0.033203125,0.0,0.0,0.0
61912823,49316,0,0.998046875,-0.0390625,0.005859375,-0.033203125,0.0,0.0,0.0
61914074,49317,0,0.998046875,-0.033203125,0.021484375,-0.01171875,0.0,0.0,0.0
61915325,49318,0,0.998046875,-0.02734375,0.017578125,-0.009765625,0.0,0.0,0.0
61916575,49319,0,1.001953125,-0.03515625,0.013671875,-0.021484375,0.0,0.0,0.0
61917825,49320,0,1.001953125,-0.037109375,0.017578125,-0.01953125,0.0,0.0,0.0
61919076,49321,0,0.99609375,-0.0390625,0.0078125,-0.03125,0.0,0.0,0.0
61920326,49322,0,0.998046875,-0.046875,0.01171875,-0.03515625,0.0,0.0,0.0
61921577,49323,0,0.998046875,-0.048828125,0.009765625,-0.0390625,0.0,0.0,0.0
61922828,49324,0,1.0,-0.052734375,0.005859375,-0.046875,0.0,0.0,0.0
61924078,49325,0,0.998046875,-0.056640625,0.001953125,-0.0546875,0.0,0.0,0.0
61925329,49326,0,0.99609375,-0.064453125,0.0,-0.064453125,0.0,0.0,0.0
61926581,49327,0,1.0,-0.064453125,-0.005859375,-0.0703125,0.0,0.0,0.0
61927833,49328,0,0.998046875,-0.052734375,0.00390625,-0.048828125,0.0,0.0,0.0
61929083,49329,0,1.001953125,-0.04296875,0.01171875,-0.03125,0.0,0.0,0.0
61930333,49330,0,0.99609375,-0.037109375,0.01953125,-0.017578125,0.0,0.0,0.0
61931584,49331,0,1.001953125,-0.056640625,-0.001953125,-0.05859375,0.0,0.0,0.0
61932835,49332,0,0.98828125,-0.05859375,0.0,-0.05859375,0.0,0.0,0.0
61934085,49333,0,1.017578125,-0.03125,0.015625,-0.015625,0.0,0.0,0.0
61935336,49334,0,1.0,-0.02734375,0.01171875,-0.015625,0.0,0.0,0.0
61936587,49335,0,1.001953125,-0.015625,0.02734375,0.01171875,0.0,0.0,0.0
61937838,49336,0,1.00390625,-0.029296875,0.01171875,-0.017578125,0.0,0.0,0.0
61939090,49337,0,1.005859375,-0.103515625,-0.021484375,-0.125,0.0,0.0,0.0
61940341,49338,0,0.984375,-0.142578125,-0.03515625,-0.177734375,0.0,0.0,0.0
61941592,49339,0,0.962890625,-0.447265625,-0.154296875,-0.6015625,0.0,0.0,0.0
61942844,49340,0,0.853515625,-4.0,-1.736328125,-5.736328125,0.0,0.0,0.0
61944095,49341,0,0.51953125,2.318359375,0.6953125,3.013671875,0.0,0.0,0.0
61945346,49342,0,1.529296875,1.72265625,0.84375,2.56640625,0.0,0.0,0.0
61946597,49343,0,0.8515625,0.8515625,0.5859375,1.4375,0.0,0.0,0.0
61947849,49344,0,1.091796875,-0.646484375,-0.34375,-0.990234375,0.0,0.0,0.0
61949099,49345,0,0.662109375,-1.037109375,-0.3828125,-1.419921875,0.0,0.0,0.0
61950351,49346,0,1.140625,-0.845703125,-0.451171875,-1.296875,0.0,0.0,0.0
61951602,49347,0,0.951171875,-0.5078125,-0.234375,-0.7421875,0.0,0.0,0.0
61952854,49348,0,1.01953125,0.048828125,0.033203125,0.08203125,0.0,0.0,0.0
61954104,49349,0,1.279296875,0.158203125,0.25,0.408203125,0.0,0.0,0.0
61955354,49350,0,1.048828125,-0.13671875,-0.025390625,-0.162109375,0.0,0.0,0.0
61956605,49351,0,0.931640625,-0.51171875,-0.12109375,-0.6328125,0.0,0.0,0.0
61957855,49352,0,0.970703125,-0.724609375,-0.1953125,-0.919921875,0.0,0.0,0.0
61959107,49353,0,1.083984375,-0.904296875,-0.40625,-1.310546875,0.0,0.0,0.0
61960358,49354,0,0.935546875,-0.986328125,-0.37109375,-1.357421875,0.0,0.0,0.0
61961609,49355,0,0.9765625,-1.298828125,-0.4375,-1.736328125,0.0,0.0,0.0
61962859,49356,0,1.00390625,-2.73046875,-0.935546875,-3.666015625,0.0,0.0,0.0
61964111,49357,0,1.068359375,-3.8515625,-1.77734375,-5.62890625,0.0,0.0,0.0
61965362,49358,0,0.72265625,-3.12109375,-3.890625,-7.01171875,0.0,0.0,0.0
61966613,49359,0,0.296875,-4.0,-3.84765625,-7.84765625,0.0,0.0,0.0
61967865,49360,0,0.30859375,-4.0,-3.3671875,-7.3671875,0.0,0.0,0.0
61969115,49361,0,-0.462890625,1.314453125,-2.310546875,-0.99609375,0.0,0.0,0.0
61970365,49362,0,2.138671875,3.998046875,-0.23046875,3.767578125,0.0,0.0,0.0
61971617,49363,0,0.921875,3.998046875,1.599609375,5.59765625,0.0,0.0,0.0
61972867,49364,0,1.794921875,3.998046875,3.353515625,7.3515625,0.0,0.0,0.0
61974118,49365,0,1.130859375,3.998046875,3.998046875,7.99609375,0.0,0.0,0.0
61975369,49366,0,1.083984375,3.998046875,3.642578125,7.640625,0.0,0.0,0.0
61976620,49367,0,1.255859375,3.998046875,2.607421875,6.60546875,0.0,0.0,0.0
61977871,49368,0,0.958984375,3.505859375,1.556640625,5.0625,0.0,0.0,0.0
61979123,49369,0,0.974609375,0.12109375,-0.201171875,-0.080078125,0.0,0.0,0.0
61980374,49370,0,1.16015625,-2.869140625,-1.365234375,-4.234375,0.0,0.0,0.0
61981624,49371,0,1.169921875,-4.0,-1.923828125,-5.923828125,0.0,0.0,0.0
61982875,49372,0,0.626953125,-4.0,-2.134765625,-6.134765625,0.0,0.0,0.0
61984125,49373,0,0.873046875,-4.0,-2.125,-6.125,0.0,0.0,0.0
61985375,49374,0,0.810546875,-4.0,-1.744140625,-5.744140625,0.0,0.0,0.0
61986626,49375,0,0.546875,-2.71875,-1.115234375,-3.833984375,0.0,0.0,0.0
61987877,49376,0,1.0546875,-0.677734375,-0.5390625,-1.216796875,0.0,0.0,0.0
61989129,49377,0,1.30859375,1.146484375,0.111328125,1.2578125,0.0,0.0,0.0
61990380,49378,0,1.08984375,2.494140625,0.78515625,3.279296875,0.0,0.0,0.0
61991630,49379,0,1.138671875,3.189453125,1.154296875,4.34375,0.0,0.0,0.0
61992881,49380,0,1.18359375,3.427734375,1.251953125,4.6796875,0.0,0.0,0.0
61994133,49381,0,0.966796875,2.958984375,1.265625,4.224609375,0.0,0.0,0.0
61995384,49382,0,0.826171875,2.037109375,0.95703125,2.994140625,0.0,0.0,0.0
61996634,49383,0,1.115234375,0.873046875,0.361328125,1.234375,0.0,0.0,0.0
61997886,49384,0,1.029296875,-0.27734375,-0.083984375,-0.361328125,0.0,0.0,0.0
61999136,49385,0,0.947265625,-1.208984375,-0.41796875,-1.626953125,0.0,0.0,0.0
62000386,49386,0,1.16796875,-1.80859375,-0.73828125,-2.546875,0.0,0.0,0.0
62001638,49387,0,1.005859375,-2.00390625,-0.763671875,-2.767578125,0.0,0.0,0.0
62002888,49388,0,0.81640625,-1.833984375,-0.609375,-2.443359375,0.0,0.0,0.0
62004139,49389,0,0.87890625,-1.361328125,-0.46875,-1.830078125,0.0,0.0,0.0
62005391,49390,0,0.984375,-0.685546875,-0.302734375,-0.98828125,0.0,0.0,0.0
62006641,49391,0,0.916015625,0.001953125,0.0078125,0.009765625,0.0,0.0,0.0
62007892,49392,0,1.0625,0.58203125,0.181640625,0.763671875,0.0,0.0,0.0
62009142,49393,0,1.205078125,0.98046875,0.28125,1.26171875,0.0,0.0,0.0
62010393,49394,0,1.060546875,1.1484375,0.451171875,1.599609375,0.0,0.0,0.0
62011645,49395,0,1.01953125,1.099609375,0.478515625,1.578125,0.0,0.0,0.0
62012895,49396,0,1.04296875,0.857421875,0.37109375,1.228515625,0.0,0.0,0.0
62014147,49397,0,0.9296875,0.484375,0.265625,0.75,0.0,0.0,0.0
62015397,49398,0,0.904296875,0.07421875,0.119140625,0.193359375,0.0,0.0,0.0
62016649,49399,0,1.0234375,-0.298828125,-0.1015625,-0.400390625,0.0,0.0,0.0
62017899,49400,0,1.083984375,-0.5625,-0.236328125,-0.798828125,0.0,0.0,0.0
62019149,49401,0,1.02734375,-0.689453125,-0.251953125,-0.94140625,0.0,0.0,0.0
62020399,49402,0,1.0390625,-0.53125,-0.1875,-0.71875,0.0,0.0,0.0
62021650,49403,0,1.009765625,-0.30859375,-0.046875,-0.35546875,0.0,0.0,0.0
62022902,49404,0,0.93359375,-0.06640625,0.01171875,-0.0546875,0.0,0.0,0.0
62024153,49405,0,1.013671875,0.150390625,0.06640625,0.216796875,0.0,0.0,0.0
62025404,49406,0,1.02734375,0.322265625,0.119140625,0.44140625,0.0,0.0,0.0
62026654,49407,0,1.064453125,0.40234375,0.150390625,0.552734375,0.0,0.0,0.0
62027904,49408,0,1.109375,0.408203125,0.14453125,0.552734375,0.0,0.0,0.0
62029155,49409,0,1.03515625,0.33984375,0.1640625,0.50390625,0.0,0.0,0.0
62030407,49410,0,0.9296875,0.212890625,0.15625,0.369140625,0.0,0.0,0.0
62031657,49411,0,0.96875,0.06640625,0.076171875,0.142578125,0.0,0.0,0.0
62032909,49412,0,0.96875,-0.0703125,0.01953125,-0.05078125,0.0,0.0,0.0
62034159,49413,0,0.970703125,-0.169921875,-0.025390625,-0.1953125,0.0,0.0,0.0
62035409,49414,0,1.0546875,-0.23828125,-0.087890625,-0.326171875,0.0,0.0,0.0
62036661,49415,0,1.0703125,-0.240234375,-0.09765625,-0.337890625,0.0,0.0,0.0
62037911,49416,0,1.013671875,-0.19921875,-0.05859375,-0.2578125,0.0,0.0,0.0
62039161,49417,0,0.97265625,-0.13671875,-0.01953125,-0.15625,0.0,0.0,0.0
62040411,49418,0,0.994140625,-0.048828125,0.037109375,-0.01171875,0.0,0.0,0.0
62041663,49419,0,0.9609375,0.033203125,0.06640625,0.099609375,0.0,0.0,0.0
62042913,49420,0,0.97265625,0.1015625,0.07421875,0.17578125,0.0,0.0,0.0
62044164,49421,0,1.0546875,0.134765625,0.05859375,0.193359375,0.0,0.0,0.0
62045415,49422,0,1.052734375,0.134765625,0.04296875,0.177734375,0.0,0.0,0.0
62046666,49423,0,1.02734375,0.1015625,0.064453125,0.166015625,0.0,0.0,0.0
62047916,49424,0,1.029296875,0.05859375,0.04296875,0.1015625,0.0,0.0,0.0
62049167,49425,0,1.0078125,0.0,0.03125,0.03125,0.0,0.0,0.0
62050417,49426,0,0.9453125,-0.046875,0.0390625,-0.0078125,0.0,0.0,0.0
62051668,49427,0,0.96875,-0.0859375,0.0078125,-0.078125,0.0,0.0,0.0
62052920,49428,0,1.009765625,-0.107421875,-0.021484375,-0.12890625,0.0,0.0,0.0
62054171,49429,0,1.009765625,-0.11328125,-0.017578125,-0.130859375,0.0,0.0,0.0
62055421,49430,0,1.037109375,-0.103515625,-0.033203125,-0.13671875,0.0,0.0,0.0
62056672,49431,0,1.048828125,-0.091796875,-0.03125,-0.123046875,0.0,0.0,0.0
62057924,49432,0,1.013671875,-0.05859375,-0.00390625,-0.0625,0.0,0.0,0.0
62059174,49433,0,0.966796875,-0.02734375,0.029296875,0.001953125,0.0,0.0,0.0
62060425,49434,0,0.974609375,-0.01171875,0.029296875,0.017578125,0.0,0.0,0.0
62061677,49435,0,0.984375,0.0,0.04296875,0.04296875,0.0,0.0,0.0
62062927,49436,0,0.990234375,0.005859375,0.03515625,0.041015625,0.0,0.0,0.0
62064177,49437,0,1.0390625,0.0,0.009765625,0.009765625,0.0,0.0,0.0
62065429,49438,0,1.046875,-0.015625,-0.001953125,-0.017578125,0.0,0.0,0.0
62066679,49439,0,1.01953125,-0.021484375,0.005859375,-0.015625,0.0,0.0,0.0
62067931,49440,0,1.001953125,-0.0390625,0.009765625,-0.029296875,0.0,0.0,0.0
62069181,49441,0,0.990234375,-0.056640625,0.01171875,-0.044921875,0.0,0.0,0.0
62070431,49442,0,0.96875,-0.06640625,0.00390625,-0.0625,0.0,0.0,0.0
62071683,49443,0,0.98046875,-0.056640625,-0.00390625,-0.060546875,0.0,0.0,0.0
62072933,49444,0,1.03515625,-0.05859375,0.001953125,-0.056640625,0.0,0.0,0.0
62074183,49445,0,1.029296875,-0.037109375,0.005859375,-0.03125,0.0,0.0,0.0
62075434,49446,0,1.017578125,-0.029296875,0.005859375,-0.0234375,0.0,0.0,0.0
62076685,49447,0,0.99609375,-0.025390625,0.017578125,-0.0078125,0.0,0.0,0.0
62077936,49448,0,0.974609375,-0.015625,0.025390625,0.009765625,0.0,0.0,0.0
62079186,49449,0,0.990234375,-0.01953125,0.0234375,0.00390625,0.0,0.0,0.0
62080437,49450,0,1.013671875,-0.013671875,0.021484375,0.0078125,0.0,0.0,0.0
62081687,49451,0,1.013671875,-0.01171875,0.017578125,0.005859375,0.0,0.0,0.0
62082937,49452,0,1.021484375,-0.0078125,0.013671875,0.005859375,0.0,0.0,0.0
62084188,49453,0,1.033203125,-0.01171875,0.013671875,0.001953125,0.0,0.0,0.0
62085440,49454,0,0.99609375,-0.015625,0.0234375,0.0078125,0.0,0.0,0.0
62086690,49455,0,0.990234375,-0.025390625,0.025390625,0.0,0.0,0.0,0.0
62087942,49456,0,0.998046875,-0.021484375,0.025390625,0.00390625,0.0,0.0,0.0
62089193,49457,0,0.99609375,-0.01953125,0.021484375,0.001953125,0.0,0.0,0.0
62090445,49458,0,1.001953125,-0.015625,0.017578125,0.001953125,0.0,0.0,0.0
62091695,49459,0,1.017578125,-0.017578125,0.017578125,0.0,0.0,0.0,0.0
62092947,49460,0,1.0234375,-0.013671875,0.01953125,0.005859375,0.0,0.0,0.0
62094198,49461,0,1.005859375,-0.0078125,0.01953125,0.01171875,0.0,0.0,0.0
62095450,49462,0,1.00390625,-0.00390625,0.029296875,0.025390625,0.0,0.0,0.0
62096700,49463,0,1.005859375,-0.005859375,0.033203125,0.02734375,0.0,0.0,0.0
62097952,49464,0,0.9921875,-0.01171875,0.033203125,0.021484375,0.0,0.0,0.0
62099203,49465,0,0.994140625,-0.0078125,0.021484375,0.013671875,0.0,0.0,0.0
62100454,49466,0,1.017578125,-0.009765625,0.01953125,0.009765625,0.0,0.0,0.0
62101705,49467,0,1.009765625,-0.009765625,0.013671875,0.00390625,0.0,0.0,0.0
62102957,49468,0,1.01953125,-0.01171875,0.021484375,0.009765625,0.0,0.0,0.0
62104207,49469,0,1.0078125,-0.013671875,0.0234375,0.009765625,0.0,0.0,0.0
62105459,49470,0,1.001953125,-0.01953125,0.0234375,0.00390625,0.0,0.0,0.0
62106709,49471,0,0.98828125,-0.01953125,0.02734375,0.0078125,0.0,0.0,0.0
62107959,49472,0,1.0,-0.01953125,0.01953125,0.0,0.0,0.0,0.0
62109209,49473,0,1.009765625,-0.0234375,0.015625,-0.0078125,0.0,0.0,0.0
62110459,49474,0,1.0078125,-0.0234375,0.021484375,-0.001953125,0.0,0.0,0.0
62111711,49475,0,1.017578125,-0.0234375,0.0234375,0.0,0.0,0.0,0.0
62112961,49476,0,1.009765625,-0.01953125,0.01953125,0.0,0.0,0.0,0.0
62114213,49477,0,0.994140625,-0.0234375,0.0234375,0.0,0.0,0.0,0.0
62115464,49478,0,0.998046875,-0.021484375,0.0234375,0.001953125,0.0,0.0,0.0
62116715,49479,0,1.00390625,-0.02734375,0.017578125,-0.009765625,0.0,0.0,0.0
62117966,49480,0,1.005859375,-0.03125,0.021484375,-0.009765625,0.0,0.0,0.0
62119216,49481,0,1.005859375,-0.0390625,0.01171875,-0.02734375,0.0,0.0,0.0
62120467,49482,0,1.009765625,-0.0390625,0.00390625,-0.03515625,0.0,0.0,0.0
62121718,49483,0,1.00390625,-0.041015625,0.0078125,-0.033203125,0.0,0.0,0.0
62122968,49484,0,0.99609375,-0.037109375,0.013671875,-0.0234375,0.0,0.0,0.0
62124219,49485,0,0.99609375,-0.04296875,0.013671875,-0.029296875,0.0,0.0,0.0
62125470,49486,0,1.005859375,-0.037109375,0.01171875,-0.025390625,0.0,0.0,0.0
62126721,49487,0,1.0078125,-0.0390625,0.001953125,-0.037109375,0.0,0.0,0.0
62127971,49488,0,1.017578125,-0.0390625,0.0078125,-0.03125,0.0,0.0,0.0
62129223,49489,0,1.0078125,-0.041015625,0.0078125,-0.033203125,0.0,0.0,0.0
62130473,49490,0,1.001953125,-0.04296875,0.0078125,-0.03515625,0.0,0.0,0.0
62131723,49491,0,1.0078125,-0.0390625,0.005859375,-0.033203125,0.0,0.0,0.0
62132975,49492,0,0.99609375,-0.0390625,0.005859375,-0.033203125,0.0,0.0,0.0
62134226,49493,0,0.99609375,-0.03515625,0.0078125,-0.02734375,0.0,0.0,0.0
62135476,49494,0,1.005859375,-0.037109375,0.005859375,-0.03125,0.0,0.0,0.0
62136728,49495,0,1.005859375,-0.03125,0.009765625,-0.021484375,0.0,0.0,0.0
62137979,49496,0,0.998046875,-0.03125,0.013671875,-0.017578125,0.0,0.0,0.0
62139229,49497,0,1.013671875,-0.03515625,0.005859375,-0.029296875,0.0,0.0,0.0
62140481,49498,0,1.005859375,-0.03515625,0.005859375,-0.029296875,0.0,0.0,0.0
62141731,49499,0,0.998046875,-0.03515625,0.01171875,-0.0234375,0.0,0.0,0.0
62142981,49500,0,1.0,-0.03515625,0.005859375,-0.029296875,0.0,0.0,0.0
62144232,49501,0,1.001953125,-0.03515625,0.005859375,-0.029296875,0.0,0.0,0.0
62145483,49502,0,1.0,-0.029296875,0.017578125,-0.01171875,0.0,0.0,0.0
62146734,49503,0,1.009765625,-0.025390625,0.009765625,-0.015625,0.0,0.0,0.0
62147986,49504,0,1.01171875,-0.025390625,0.01171875,-0.013671875,0.0,0.0,0.0
62149236,49505,0,1.001953125,-0.025390625,0.015625,-0.009765625,0.0,0.0,0.0
62150486,49506,0,1.01171875,-0.021484375,0.015625,-0.005859375,0.0,0.0,0.0
62151737,49507,0,0.99609375,-0.015625,0.01171875,-0.00390625,0.0,0.0,0.0
62152987,49508,0,1.00390625,-0.017578125,0.021484375,0.00390625,0.0,0.0,0.0
62154238,49509,0,0.998046875,-0.01953125,0.01171875,-0.0078125,0.0,0.0,0.0
62155489,49510,0,1.0,-0.01953125,0.01171875,-0.0078125,0.0,0.0,0.0
62156740,49511,0,1.009765625,-0.01171875,0.015625,0.00390625,0.0,0.0,0.0
62157991,49512,0,1.0078125,-0.015625,0.017578125,0.001953125,0.0,0.0,0.0
62159241,49513,0,1.001953125,-0.017578125,0.021484375,0.00390625,0.0,0.0,0.0
62160492,49514,0,1.005859375,-0.021484375,0.01953125,-0.001953125,0.0,0.0,0.0
62161744,49515,0,1.00390625,-0.01953125,0.0234375,0.00390625,0.0,0.0,0.0
62162994,49516,0,0.998046875,-0.013671875,0.021484375,0.0078125,0.0,0.0,0.0
62164245,49517,0,1.0078125,-0.015625,0.01953125,0.00390625,0.0,0.0,0.0
62165496,49518,0,1.001953125,-0.01171875,0.01953125,0.0078125,0.0,0.0,0.0
62166747,49519,0,1.0078125,-0.01171875,0.0234375,0.01171875,0.0,0.0,0.0
62167998,49520,0,1.00390625,-0.01171875,0.01953125,0.0078125,0.0,0.0,0.0
62169249,49521,0,1.00390625,-0.01171875,0.021484375,0.009765625,0.0,0.0,0.0
62170499,49522,0,1.00390625,-0.015625,0.0234375,0.0078125,0.0,0.0,0.0
62171751,49523,0,1.005859375,-0.01953125,0.021484375,0.001953125,0.0,0.0,0.0
62173002,49524,0,1.0078125,-0.0234375,0.021484375,-0.001953125,0.0,0.0,0.0
62174253,49525,0,1.00390625,-0.0234375,0.017578125,-0.005859375,0.0,0.0,0.0
62175503,49526,0,0.99609375,-0.021484375,0.0234375,0.001953125,0.0,0.0,0.0
62176755,49527,0,1.009765625,-0.02734375,0.01953125,-0.0078125,0.0,0.0,0.0
62178005,49528,0,1.001953125,-0.021484375,0.0234375,0.001953125,0.0,0.0,0.0
62179256,49529,0,1.01171875,-0.025390625,0.01953125,-0.005859375,0.0,0.0,0.0
62180506,49530,0,1.00390625,-0.01953125,0.017578125,-0.001953125,0.0,0.0,0.0
62181757,49531,0,1.00390625,-0.03125,0.0234375,-0.0078125,0.0,0.0,0.0
62183008,49532,0,1.00390625,-0.0234375,0.017578125,-0.005859375,0.0,0.0,0.0
62184258,49533,0,1.005859375,-0.025390625,0.0234375,-0.001953125,0.0,0.0,0.0
62185508,49534,0,0.998046875,-0.0234375,0.0234375,0.0,0.0,0.0,0.0
62186759,49535,0,1.0,-0.03125,0.015625,-0.015625,0.0,0.0,0.0
62188009,49536,0,1.001953125,-0.029296875,0.0234375,-0.005859375,0.0,0.0,0.0
62189259,49537,0,0.998046875,-0.033203125,0.0234375,-0.009765625,0.0,0.0,0.0
62190510,49538,0,1.005859375,-0.03515625,0.01953125,-0.015625,0.0,0.0,0.0
62191762,49539,0,1.001953125,-0.03515625,0.009765625,-0.025390625,0.0,0.0,0.0
62193012,49540,0,1.005859375,-0.03515625,0.015625,-0.01953125,0.0,0.0,0.0
62194271,49541,0,1.005859375,-0.03515625,0.017578125,-0.017578125,0.0,0.0,0.0
62195521,49542,0,1.001953125,-0.037109375,0.017578125,-0.01953125,0.0,0.0,0.0
62196773,49543,0,1.001953125,-0.03515625,0.01171875,-0.0234375,0.0,0.0,0.0
62198023,49544,0,1.00390625,-0.033203125,0.013671875,-0.01953125,0.0,0.0,0.0
62199274,49545,0,1.00390625,-0.03515625,0.009765625,-0.025390625,0.0,0.0,0.0
62200525,49546,0,1.005859375,-0.037109375,0.0234375,-0.013671875,0.0,0.0,0.0
62201776,49547,0,1.00390625,-0.03515625,0.005859375,-0.029296875,0.0,0.0,0.0
62203026,49548,0,0.998046875,-0.02734375,0.013671875,-0.013671875,0.0,0.0,0.0
62204276,49549,0,1.0078125,-0.03125,-0.037109375,-0.068359375,0.0,0.0,0.0
62205527,49550,0,1.005859375,-0.03515625,0.01171875,-0.0234375,0.0,0.0,0.0
62206778,49551,0,1.005859375,-0.03515625,0.00390625,-0.03125,0.0,0.0,0.0
62208029,49552,0,0.998046875,-0.03125,0.005859375,-0.025390625,0.0,0.0,0.0
62209280,49553,0,1.001953125,-0.033203125,0.00390625,-0.029296875,0.0,0.0,0.0
62210531,49554,0,1.013671875,-0.03515625,0.013671875,-0.021484375,0.0,0.0,0.0
62211783,49555,0,1.0078125,-0.03515625,0.013671875,-0.021484375,0.0,0.0,0.0
62213034,49556,0,1.005859375,-0.03125,0.013671875,-0.017578125,0.0,0.0,0.0
62214286,49557,0,1.005859375,-0.029296875,0.005859375,-0.0234375,0.0,0.0,0.0
62215537,49558,0,1.001953125,-0.03125,0.015625,-0.015625,0.0,0.0,0.0
62216789,49559,0,1.0,-0.03125,0.015625,-0.015625,0.0,0.0,0.0
62218039,49560,0,1.001953125,-0.029296875,0.013671875,-0.015625,0.0,0.0,0.0
62219289,49561,0,1.00390625,-0.02734375,0.013671875,-0.013671875,0.0,0.0,0.0
62220541,49562,0,1.00390625,-0.02734375,0.017578125,-0.009765625,0.0,0.0,0.0
62221792,49563,0,1.001953125,-0.025390625,0.01171875,-0.013671875,0.0,0.0,0.0
62223044,49564,0,1.005859375,-0.01953125,0.015625,-0.00390625,0.0,0.0,0.0
62224294,49565,0,1.005859375,-0.021484375,0.01171875,-0.009765625,0.0,0.0,0.0
62225544,49566,0,1.00390625,-0.021484375,0.009765625,-0.01171875,0.0,0.0,0.0
62226795,49567,0,0.998046875,-0.017578125,0.015625,-0.001953125,0.0,0.0,0.0
62228045,49568,0,1.001953125,-0.01953125,0.017578125,-0.001953125,0.0,0.0,0.0
62229295,49569,0,0.99609375,-0.021484375,0.015625,-0.005859375,0.0,0.0,0.0
62230546,49570,0,1.01171875,-0.015625,0.015625,0.0,0.0,0.0,0.0
62231797,49571,0,0.99609375,-0.01953125,0.01953125,0.0,0.0,0.0,0.0
62233048,49572,0,0.994140625,-0.015625,0.013671875,-0.001953125,0.0,0.0,0.0
62234299,49573,0,1.0,-0.017578125,0.021484375,0.00390625,0.0,0.0,0.0
62235550,49574,0,1.0,-0.01953125,0.021484375,0.001953125,0.0,0.0,0.0
62236800,49575,0,1.005859375,-0.01953125,0.015625,-0.00390625,0.0,0.0,0.0
62238052,49576,0,1.005859375,-0.01953125,0.017578125,-0.001953125,0.0,0.0,0.0
62239303,49577,0,1.005859375,-0.01953125,0.017578125,-0.001953125,0.0,0.0,0.0
62240554,49578,0,1.0,-0.021484375,0.021484375,0.0,0.0,0.0,0.0
62241805,49579,0,1.00390625,-0.021484375,0.015625,-0.005859375,0.0,0.0,0.0
62243057,49580,0,1.001953125,-0.0234375,0.017578125,-0.005859375,0.0,0.0,0.0
62244308,49581,0,1.0,-0.015625,0.015625,0.0,0.0,0.0,0.0
62245560,49582,0,1.0078125,-0.021484375,0.015625,-0.005859375,0.0,0.0,0.0
62246811,49583,0,1.00390625,-0.021484375,0.015625,-0.005859375,0.0,0.0,0.0
62248063,49584,0,1.001953125,-0.0234375,0.017578125,-0.005859375,0.0,0.0,0.0
62249314,49585,0,1.001953125,-0.025390625,0.015625,-0.009765625,0.0,0.0,0.0
62250565,49586,0,1.0078125,-0.025390625,0.01171875,-0.013671875,0.0,0.0,0.0
62251816,49587,0,1.0078125,-0.029296875,0.01953125,-0.009765625,0.0,0.0,0.0
62253066,49588,0,1.0,-0.025390625,0.013671875,-0.01171875,0.0,0.0,0.0
62254318,49589,0,1.001953125,-0.03125,0.013671875,-0.017578125,0.0,0.0,0.0
62255569,49590,0,0.998046875,-0.02734375,0.009765625,-0.017578125,0.0,0.0,0.0
62256819,49591,0,1.001953125,-0.0234375,0.015625,-0.0078125,0.0,0.0,0.0
62258070,49592,0,0.998046875,-0.02734375,0.015625,-0.01171875,0.0,0.0,0.0
62259321,49593,0,1.00390625,-0.033203125,0.0,-0.033203125,0.0,0.0,0.0
62260572,49594,0,1.005859375,-0.033203125,0.01953125,-0.013671875,0.0,0.0,0.0
62261823,49595,0,1.005859375,-0.02734375,0.01171875,-0.015625,0.0,0.0,0.0
62263074,49596,0,1.00390625,-0.0234375,0.015625,-0.0078125,0.0,0.0,0.0
62264325,49597,0,0.990234375,-0.03125,0.013671875,-0.017578125,0.0,0.0,0.0
62265575,49598,0,1.001953125,-0.03515625,0.015625,-0.01953125,0.0,0.0,0.0
62266825,49599,0,1.0078125,-0.033203125,0.009765625,-0.0234375,0.0,0.0,0.0
62268076,49600,0,0.998046875,-0.03125,0.0078125,-0.0234375,0.0,0.0,0.0
62269326,49601,0,1.001953125,-0.033203125,0.013671875,-0.01953125,0.0,0.0,0.0
62270577,49602,0,1.001953125,-0.03515625,0.009765625,-0.025390625,0.0,0.0,0.0
62271828,49603,0,1.0,-0.03515625,0.015625,-0.01953125,0.0,0.0,0.0
62273078,49604,0,1.005859375,-0.033203125,0.015625,-0.017578125,0.0,0.0,0.0
62274329,49605,0,1.009765625,-0.033203125,0.01171875,-0.021484375,0.0,0.0,0.0
62275581,49606,0,1.0078125,-0.02734375,0.009765625,-0.017578125,0.0,0.0,0.0
62276833,49607,0,1.0,-0.03515625,0.017578125,-0.017578125,0.0,0.0,0.0
62278083,49608,0,1.00390625,-0.03125,0.01171875,-0.01953125,0.0,0.0,0.0
62279333,49609,0,1.0078125,-0.03125,0.01953125,-0.01171875,0.0,0.0,0.0
62280584,49610,0,1.005859375,-0.029296875,0.015625,-0.013671875,0.0,0.0,0.0
62281835,49611,0,1.013671875,-0.033203125,0.015625,-0.017578125,0.0,0.0,0.0
62283085,49612,0,1.005859375,-0.033203125,0.015625,-0.017578125,0.0,0.0,0.0
62284336,49613,0,1.015625,-0.03125,0.015625,-0.015625,0.0,0.0,0.0
62285587,49614,0,1.005859375,-0.033203125,0.017578125,-0.015625,0.0,0.0,0.0
62286838,49615,0,1.01171875,-0.029296875,0.009765625,-0.01953125,0.0,0.0,0.0
62288090,49616,0,1.01171875,-0.025390625,0.013671875,-0.01171875,0.0,0.0,0.0
62289341,49617,0,1.017578125,-0.025390625,0.01953125,-0.005859375,0.0,0.0,0.0
62290592,49618,0,1.0,-0.02734375,0.015625,-0.01171875,0.0,0.0,0.0
62291844,49619,0,1.005859375,-0.021484375,0.017578125,-0.00390625,0.0,0.0,0.0
62293095,49620,0,1.005859375,-0.0234375,0.017578125,-0.005859375,0.0,0.0,0.0
62294346,49621,0,1.001953125,-0.0234375,0.021484375,-0.001953125,0.0,0.0,0.0
62295597,49622,0,0.998046875,-0.021484375,0.0234375,0.001953125,0.0,0.0,0.0
62296849,49623,0,1.001953125,-0.025390625,0.021484375,-0.00390625,0.0,0.0,0.0
62298099,49624,0,1.0,-0.0234375,0.015625,-0.0078125,0.0,0.0,0.0
62299351,49625,0,1.001953125,-0.0234375,0.015625,-0.0078125,0.0,0.0,0.0
62300602,49626,0,1.0078125,-0.01953125,0.017578125,-0.001953125,0.0,0.0,0.0
62301854,49627,0,1.001953125,-0.01953125,0.017578125,-0.001953125,0.0,0.0,0.0
62303104,49628,0,1.005859375,-0.01953125,0.01953125,0.0,0.0,0.0,0.0
62304354,49629,0,1.001953125,-0.021484375,0.015625,-0.005859375,0.0,0.0,0.0
62305605,49630,0,1.005859375,-0.021484375,0.017578125,-0.00390625,0.0,0.0,0.0
62306855,49631,0,1.0078125,-0.015625,0.02734375,0.01171875,0.0,0.0,0.0
62308107,49632,0,0.998046875,-0.0234375,0.015625,-0.0078125,0.0,0.0,0.0
62309358,49633,0,1.009765625,-0.021484375,0.021484375,0.0,0.0,0.0,0.0
62310609,49634,0,1.00390625,-0.01953125,0.01953125,0.0,0.0,0.0,0.0
62311859,49635,0,1.005859375,-0.01953125,0.01171875,-0.0078125,0.0,0.0,0.0
62313111,49636,0,0.994140625,-0.0234375,0.01953125,-0.00390625,0.0,0.0,0.0
62314362,49637,0,1.00390625,-0.021484375,0.01171875,-0.009765625,0.0,0.0,0.0
62315613,49638,0,0.998046875,-0.015625,0.015625,0.0,0.0,0.0,0.0
62316865,49639,0,1.001953125,-0.021484375,0.01953125,-0.001953125,0.0,0.0,0.0
62318115,49640,0,1.001953125,-0.021484375,0.015625,-0.005859375,0.0,0.0,0.0
62319365,49641,0,1.0,-0.025390625,0.017578125,-0.0078125,0.0,0.0,0.0
62320617,49642,0,1.0078125,-0.0234375,0.013671875,-0.009765625,0.0,0.0,0.0
62321867,49643,0,1.005859375,-0.0234375,0.017578125,-0.005859375,0.0,0.0,0.0
62323118,49644,0,1.00390625,-0.01953125,0.017578125,-0.001953125,0.0,0.0,0.0
62324369,49645,0,1.00390625,-0.02734375,0.015625,-0.01171875,0.0,0.0,0.0
62325620,49646,0,0.998046875,-0.02734375,0.013671875,-0.013671875,0.0,0.0,0.0
62326871,49647,0,1.001953125,-0.0234375,0.01953125,-0.00390625,0.0,0.0,0.0
62328123,49648,0,1.0,-0.03125,0.015625,-0.015625,0.0,0.0,0.0
62329374,49649,0,1.005859375,-0.02734375,0.015625,-0.01171875,0.0,0.0,0.0
62330624,49650,0,1.00390625,-0.02734375,0.017578125,-0.009765625,0.0,0.0,0.0
62331875,49651,0,1.009765625,-0.02734375,0.01171875,-0.015625,0.0,0.0,0.0
62333125,49652,0,0.998046875,-0.03125,0.017578125,-0.013671875,0.0,0.0,0.0
62334375,49653,0,1.001953125,-0.02734375,0.013671875,-0.013671875,0.0,0.0,0.0
62335626,49654,0,1.001953125,-0.02734375,0.01171875,-0.015625,0.0,0.0,0.0
62336877,49655,0,1.013671875,-0.029296875,0.015625,-0.013671875,0.0,0.0,0.0
62338129,49656,0,1.0078125,-0.03125,0.0078125,-0.0234375,0.0,0.0,0.0
62339380,49657,0,0.998046875,-0.03125,0.013671875,-0.017578125,0.0,0.0,0.0
62340630,49658,0,1.0078125,-0.033203125,0.015625,-0.017578125,0.0,0.0,0.0
62341881,49659,0,1.005859375,-0.037109375,0.015625,-0.021484375,0.0,0.0,0.0
62343133,49660,0,1.017578125,-0.033203125,0.013671875,-0.01953125,0.0,0.0,0.0
62344384,49661,0,1.0,-0.033203125,0.013671875,-0.01953125,0.0,0.0,0.0
62345634,49662,0,1.001953125,-0.03515625,0.017578125,-0.017578125,0.0,0.0,0.0
62346886,49663,0,1.001953125,-0.03125,0.015625,-0.015625,0.0,0.0,0.0
62348136,49664,0,1.00390625,-0.033203125,0.01953125,-0.013671875,0.0,0.0,0.0
62349386,49665,0,1.001953125,-0.029296875,0.017578125,-0.01171875,0.0,0.0,0.0
62350638,49666,0,1.0,-0.033203125,0.015625,-0.017578125,0.0,0.0,0.0
62351888,49667,0,1.005859375,-0.033203125,0.017578125,-0.015625,0.0,0.0,0.0
62353139,49668,0,1.005859375,-0.02734375,0.01171875,-0.015625,0.0,0.0,0.0
62354391,49669,0,1.005859375,-0.033203125,0.0234375,-0.009765625,0.0,0.0,0.0
62355641,49670,0,1.0,-0.029296875,0.01953125,-0.009765625,0.0,0.0,0.0
62356892,49671,0,1.00390625,-0.0234375,0.013671875,-0.009765625,0.0,0.0,0.0
62358142,49672,0,1.0,-0.03125,0.009765625,-0.021484375,0.0,0.0,0.0
62359393,49673,0,1.0078125,-0.02734375,0.015625,-0.01171875,0.0,0.0,0.0
62360645,49674,0,1.005859375,-0.02734375,0.01953125,-0.0078125,0.0,0.0,0.0
62361895,49675,0,1.005859375,-0.029296875,0.021484375,-0.0078125,0.0,0.0,0.0
62363147,49676,0,0.99609375,-0.025390625,0.017578125,-0.0078125,0.0,0.0,0.0
62364397,49677,0,0.99609375,-0.021484375,0.017578125,-0.00390625,0.0,0.0,0.0
62365649,49678,0,1.0,-0.021484375,0.029296875,0.0078125,0.0,0.0,0.0
62366899,49679,0,0.998046875,-0.025390625,0.005859375,-0.01953125,0.0,0.0,0.0
62368149,49680,0,1.0,-0.0234375,0.005859375,-0.017578125,0.0,0.0,0.0
62369399,49681,0,1.00390625,-0.021484375,0.021484375,0.0,0.0,0.0,0.0
62370650,49682,0,1.001953125,-0.01953125,0.017578125,-0.001953125,0.0,0.0,0.0
62371902,49683,0,1.005859375,-0.0234375,0.021484375,-0.001953125,0.0,0.0,0.0
62373153,49684,0,1.005859375,-0.01953125,0.017578125,-0.001953125,0.0,0.0,0.0
62374404,49685,0,1.005859375,-0.021484375,0.01953125,-0.001953125,0.0,0.0,0.0
62375654,49686,0,1.005859375,-0.021484375,0.015625,-0.005859375,0.0,0.0,0.0
62376904,49687,0,1.0078125,-0.0234375,0.01953125,-0.00390625,0.0,0.0,0.0
62378155,49688,0,1.001953125,-0.017578125,0.015625,-0.001953125,0.0,0.0,0.0
62379407,49689,0,1.001953125,-0.021484375,0.017578125,-0.00390625,0.0,0.0,0.0
62380657,49690,0,1.001953125,-0.021484375,0.009765625,-0.01171875,0.0,0.0,0.0
62381909,49691,0,1.001953125,-0.01953125,0.017578125,-0.001953125,0.0,0.0,0.0
62383159,49692,0,1.0078125,-0.021484375,0.015625,-0.005859375,0.0,0.0,0.0
62384409,49693,0,1.00390625,-0.0234375,0.013671875,-0.009765625,0.0,0.0,0.0
62385661,49694,0,1.009765625,-0.021484375,0.01953125,-0.001953125,0.0,0.0,0.0
62386911,49695,0,1.009765625,-0.029296875,0.015625,-0.013671875,0.0,0.0,0.0
62388161,49696,0,1.00390625,-0.025390625,0.015625,-0.009765625,0.0,0.0,0.0
62389411,49697,0,0.9921875,-0.025390625,0.01953125,-0.005859375,0.0,0.0,0.0
62390663,49698,0,0.998046875,-0.01953125,0.009765625,-0.009765625,0.0,0.0,0.0
62391913,49699,0,1.00390625,-0.03125,0.0078125,-0.0234375,0.0,0.0,0.0
62393164,49700,0,1.00390625,-0.021484375,0.021484375,0.0,0.0,0.0,0.0
62394415,49701,0,1.001953125,-0.025390625,0.017578125,-0.0078125,0.0,0.0,0.0
62395666,49702,0,1.00390625,-0.03125,0.01171875,-0.01953125,0.0,0.0,0.0
62396916,49703,0,1.001953125,-0.025390625,0.009765625,-0.015625,0.0,0.0,0.0
62398167,49704,0,1.00390625,-0.033203125,0.01953125,-0.013671875,0.0,0.0,0.0
62399417,49705,0,1.0,-0.033203125,0.01953125,-0.013671875,0.0,0.0,0.0
62400668,49706,0,1.0,-0.029296875,0.01171875,-0.017578125,0.0,0.0,0.0
62401920,49707,0,1.001953125,-0.029296875,0.01953125,-0.009765625,0.0,0.0,0.0
62403171,49708,0,1.005859375,-0.033203125,0.015625,-0.017578125,0.0,0.0,0.0
62404421,49709,0,1.00390625,-0.02734375,0.013671875,-0.013671875,0.0,0.0,0.0
62405672,49710,0,0.998046875,-0.029296875,0.01171875,-0.017578125,0.0,0.0,0.0
62406924,49711,0,1.00390625,-0.029296875,0.01171875,-0.017578125,0.0,0.0,0.0
62408174,49712,0,1.005859375,-0.029296875,0.009765625,-0.01953125,0.0,0.0,0.0
62409425,49713,0,1.001953125,-0.02734375,0.013671875,-0.013671875,0.0,0.0,0.0
62410677,49714,0,1.005859375,-0.03125,0.013671875,-0.017578125,0.0,0.0,0.0
62411927,49715,0,1.00390625,-0.02734375,0.017578125,-0.009765625,0.0,0.0,0.0
62413177,49716,0,1.0078125,-0.029296875,0.025390625,-0.00390625,0.0,0.0,0.0
62414429,49717,0,1.00390625,-0.025390625,0.01171875,-0.013671875,0.0,0.0,0.0
62415679,49718,0,1.005859375,-0.03515625,0.009765625,-0.025390625,0.0,0.0,0.0
62416931,49719,0,1.00390625,-0.02734375,0.015625,-0.01171875,0.0,0.0,0.0
62418181,49720,0,1.001953125,-0.02734375,0.01953125,-0.0078125,0.0,0.0,0.0
62419431,49721,0,1.001953125,-0.02734375,0.021484375,-0.005859375,0.0,0.0,0.0
62420683,49722,0,0.99609375,-0.02734375,0.017578125,-0.009765625,0.0,0.0,0.0
62421933,49723,0,1.001953125,-0.03515625,0.017578125,-0.017578125,0.0,0.0,0.0
62423183,49724,0,1.005859375,-0.025390625,0.01171875,-0.013671875,0.0,0.0,0.0
62424434,49725,0,0.998046875,-0.029296875,0.01171875,-0.017578125,0.0,0.0,0.0
62425685,49726,0,1.0,-0.021484375,0.017578125,-0.00390625,0.0,0.0,0.0
62426936,49727,0,1.001953125,-0.025390625,0.0078125,-0.017578125,0.0,0.0,0.0
62428186,49728,0,1.001953125,-0.0234375,0.015625,-0.0078125,0.0,0.0,0.0
62429437,49729,0,1.005859375,-0.025390625,0.015625,-0.009765625,0.0,0.0,0.0
62430687,49730,0,1.00390625,-0.0234375,0.017578125,-0.005859375,0.0,0.0,0.0
62431937,49731,0,1.00390625,-0.0234375,0.015625,-0.0078125,0.0,0.0,0.0
62433188,49732,0,1.001953125,-0.01953125,0.021484375,0.001953125,0.0,0.0,0.0
62434440,49733,0,0.99609375,-0.025390625,0.01953125,-0.005859375,0.0,0.0,0.0
62435690,49734,0,1.001953125,-0.025390625,0.01953125,-0.005859375,0.0,0.0,0.0
62436942,49735,0,0.998046875,-0.0234375,0.017578125,-0.005859375,0.0,0.0,0.0
62438193,49736,0,1.005859375,-0.01953125,0.021484375,0.001953125,0.0,0.0,0.0
62439445,49737,0,1.0078125,-0.0234375,0.017578125,-0.005859375,0.0,0.0,0.0
62440695,49738,0,1.001953125,-0.01953125,0.0234375,0.00390625,0.0,0.0,0.0
62441947,49739,0,1.0,-0.021484375,0.017578125,-0.00390625,0.0,0.0,0.0
62443198,49740,0,1.005859375,-0.017578125,0.017578125,0.0,0.0,0.0,0.0
62444450,49741,0,1.005859375,-0.021484375,0.017578125,-0.00390625,0.0,0.0,0.0
62445700,49742,0,0.99609375,-0.021484375,0.01953125,-0.001953125,0.0,0.0,0.0
62446952,49743,0,1.001953125,-0.0234375,0.015625,-0.0078125,0.0,0.0,0.0
62448203,49744,0,1.001953125,-0.029296875,0.021484375,-0.0078125,0.0,0.0,0.0
62449454,49745,0,1.0,-0.025390625,0.01953125,-0.005859375,0.0,0.0,0.0
62450705,49746,0,1.00390625,-0.025390625,0.017578125,-0.0078125,0.0,0.0,0.0
62451957,49747,0,1.005859375,-0.021484375,0.015625,-0.005859375,0.0,0.0,0.0
62453207,49748,0,1.001953125,-0.025390625,0.009765625,-0.015625,0.0,0.0,0.0
62454459,49749,0,1.0,-0.025390625,0.01953125,-0.005859375,0.0,0.0,0.0
62455709,49750,0,1.00390625,-0.029296875,0.013671875,-0.015625,0.0,0.0,0.0
62456959,49751,0,0.99609375,-0.02734375,0.01953125,-0.0078125,0.0,0.0,0.0
62458209,49752,0,1.00390625,-0.02734375,0.01171875,-0.015625,0.0,0.0,0.0
62459459,49753,0,1.00390625,-0.025390625,0.013671875,-0.01171875,0.0,0.0,0.0
62460711,49754,0,1.009765625,-0.029296875,0.017578125,-0.01171875,0.0,0.0,0.0
62461961,49755,0,1.0078125,-0.02734375,0.013671875,-0.013671875,0.0,0.0,0.0
62463213,49756,0,1.005859375,-0.03125,0.015625,-0.015625,0.0,0.0,0.0
62464464,49757,0,1.005859375,-0.033203125,0.015625,-0.017578125,0.0,0.0,0.0
62465715,49758,0,1.0078125,-0.02734375,0.021484375,-0.005859375,0.0,0.0,0.0
62466966,49759,0,1.00390625,-0.025390625,0.01171875,-0.013671875,0.0,0.0,0.0
62468216,49760,0,1.0,-0.03125,0.009765625,-0.021484375,0.0,0.0,0.0
62469467,49761,0,1.01171875,-0.029296875,0.017578125,-0.01171875,0.0,0.0,0.0
62470718,49762,0,1.00390625,-0.03125,0.013671875,-0.017578125,0.0,0.0,0.0
62471968,49763,0,0.998046875,-0.025390625,0.013671875,-0.01171875,0.0,0.0,0.0
62473219,49764,0,0.998046875,-0.03515625,0.015625,-0.01953125,0.0,0.0,0.0
62474470,49765,0,1.00390625,-0.02734375,0.02734375,0.0,0.0,0.0,0.0
62475721,49766,0,0.99609375,-0.02734375,0.015625,-0.01171875,0.0,0.0,0.0
62476971,49767,0,1.005859375,-0.03125,0.015625,-0.015625,0.0,0.0,0.0
62478223,49768,0,1.001953125,-0.03125,0.017578125,-0.013671875,0.0,0.0,0.0
62479473,49769,0,1.005859375,-0.029296875,0.0078125,-0.021484375,0.0,0.0,0.0
62480723,49770,0,1.0078125,-0.029296875,0.013671875,-0.015625,0.0,0.0,0.0
62481975,49771,0,0.998046875,-0.029296875,0.01953125,-0.009765625,0.0,0.0,0.0
62483226,49772,0,1.00390625,-0.03125,0.013671875,-0.017578125,0.0,0.0,0.0
62484476,49773,0,1.0078125,-0.029296875,0.015625,-0.013671875,0.0,0.0,0.0
62485728,49774,0,1.005859375,-0.029296875,0.015625,-0.013671875,0.0,0.0,0.0
62486979,49775,0,1.005859375,-0.025390625,0.01171875,-0.013671875,0.0,0.0,0.0
62488229,49776,0,1.00390625,-0.025390625,0.017578125,-0.0078125,0.0,0.0,0.0
62489481,49777,0,1.0078125,-0.021484375,0.017578125,-0.00390625,0.0,0.0,0.0
62490731,49778,0,1.005859375,-0.0234375,0.017578125,-0.005859375,0.0,0.0,0.0
62491981,49779,0,1.001953125,-0.021484375,0.017578125,-0.00390625,0.0,0.0,0.0
62493232,49780,0,1.009765625,-0.017578125,0.015625,-0.001953125,0.0,0.0,0.0
62494483,49781,0,1.00390625,-0.01953125,0.021484375,0.001953125,0.0,0.0,0.0
62495734,49782,0,1.005859375,-0.01953125,0.017578125,-0.001953125,0.0,0.0,0.0
62496986,49783,0,1.0078125,-0.021484375,0.015625,-0.005859375,0.0,0.0,0.0
62498236,49784,0,1.0078125,-0.02734375,0.01953125,-0.0078125,0.0,0.0,0.0
62499486,49785,0,1.0078125,-0.025390625,0.009765625,-0.015625,0.0,0.0,0.0
62500737,49786,0,0.998046875,-0.021484375,0.017578125,-0.00390625,0.0,0.0,0.0
62501987,49787,0,1.013671875,-0.021484375,0.0078125,-0.013671875,0.0,0.0,0.0
62503238,49788,0,1.009765625,-0.021484375,0.013671875,-0.0078125,0.0,0.0,0.0
62504489,49789,0,0.99609375,-0.01953125,0.017578125,-0.001953125,0.0,0.0,0.0
62505740,49790,0,1.0,-0.021484375,0.013671875,-0.0078125,0.0,0.0,0.0
62506991,49791,0,1.005859375,-0.0234375,0.01953125,-0.00390625,0.0,0.0,0.0
62508241,49792,0,1.00390625,-0.0234375,0.01171875,-0.01171875,0.0,0.0,0.0
62509492,49793,0,0.998046875,-0.0234375,0.01171875,-0.01171875,0.0,0.0,0.0
62510744,49794,0,1.00390625,-0.0234375,0.01953125,-0.00390625,0.0,0.0,0.0
62511994,49795,0,1.0078125,-0.021484375,0.01171875,-0.009765625,0.0,0.0,0.0
62513245,49796,0,1.00390625,-0.025390625,0.021484375,-0.00390625,0.0,0.0,0.0
62514496,49797,0,1.005859375,-0.0234375,0.009765625,-0.013671875,0.0,0.0,0.0
62515747,49798,0,0.998046875,-0.02734375,0.017578125,-0.009765625,0.0,0.0,0.0
62516998,49799,0,1.0,-0.025390625,0.009765625,-0.015625,0.0,0.0,0.0
62518249,49800,0,1.00390625,-0.0234375,0.01171875,-0.01171875,0.0,0.0,0.0
62519499,49801,0,1.00390625,-0.025390625,0.017578125,-0.0078125,0.0,0.0,0.0
62520751,49802,0,1.001953125,-0.02734375,0.0078125,-0.01953125,0.0,0.0,0.0
62522002,49803,0,1.005859375,-0.029296875,0.017578125,-0.01171875,0.0,0.0,0.0
62523253,49804,0,0.99609375,-0.029296875,0.017578125,-0.01171875,0.0,0.0,0.0
62524503,49805,0,1.005859375,-0.033203125,0.013671875,-0.01953125,0.0,0.0,0.0
62525755,49806,0,1.0,-0.03125,0.025390625,-0.005859375,0.0,0.0,0.0
62527005,49807,0,1.001953125,-0.02734375,0.021484375,-0.005859375,0.0,0.0,0.0
62528256,49808,0,1.001953125,-0.029296875,0.01171875,-0.017578125,0.0,0.0,0.0
62529506,49809,0,1.013671875,-0.0390625,0.01171875,-0.02734375,0.0,0.0,0.0
62530757,49810,0,1.005859375,-0.02734375,0.01953125,-0.0078125,0.0,0.0,0.0
62532008,49811,0,0.99609375,-0.029296875,0.021484375,-0.0078125,0.0,0.0,0.0
62533258,49812,0,1.00390625,-0.033203125,0.017578125,-0.015625,0.0,0.0,0.0
62534508,49813,0,1.005859375,-0.03125,0.013671875,-0.017578125,0.0,0.0,0.0
62535759,49814,0,0.998046875,-0.033203125,0.0078125,-0.025390625,0.0,0.0,0.0
62537009,49815,0,1.0078125,-0.029296875,0.015625,-0.013671875,0.0,0.0,0.0
62538259,49816,0,1.0,-0.029296875,0.017578125,-0.01171875,0.0,0.0,0.0
62539510,49817,0,1.00390625,-0.025390625,0.013671875,-0.01171875,0.0,0.0,0.0
62540762,49818,0,1.005859375,-0.029296875,0.015625,-0.013671875,0.0,0.0,0.0
62542012,49819,0,1.001953125,-0.02734375,0.01171875,-0.015625,0.0,0.0,0.0
62543271,49820,0,1.00390625,-0.029296875,0.013671875,-0.015625,0.0,0.0,0.0
62544521,49821,0,1.001953125,-0.02734375,0.009765625,-0.017578125,0.0,0.0,0.0
62545773,49822,0,1.009765625,-0.02734375,0.017578125,-0.009765625,0.0,0.0,0.0
62547023,49823,0,1.0078125,-0.02734375,0.005859375,-0.021484375,0.0,0.0,0.0
62548274,49824,0,1.005859375,-0.0234375,0.01171875,-0.01171875,0.0,0.0,0.0
62549525,49825,0,1.005859375,-0.03125,0.0234375,-0.0078125,0.0,0.0,0.0
62550776,49826,0,1.0,-0.021484375,0.009765625,-0.01171875,0.0,0.0,0.0
62552026,49827,0,1.015625,-0.0234375,0.009765625,-0.013671875,0.0,0.0,0.0
62553276,49828,0,1.0078125,-0.025390625,0.01953125,-0.005859375,0.0,0.0,0.0
62554527,49829,0,1.005859375,-0.029296875,0.00390625,-0.025390625,0.0,0.0,0.0
62555778,49830,0,1.0078125,-0.02734375,0.0234375,-0.00390625,0.0,0.0,0.0
62557029,49831,0,1.005859375,-0.025390625,0.01953125,-0.005859375,0.0,0.0,0.0
62558280,49832,0,1.00390625,-0.025390625,0.017578125,-0.0078125,0.0,0.0,0.0
62559531,49833,0,1.005859375,-0.025390625,0.021484375,-0.00390625,0.0,0.0,0.0
62560783,49834,0,0.99609375,-0.029296875,0.015625,-0.013671875,0.0,0.0,0.0
62562034,49835,0,1.001953125,-0.025390625,0.013671875,-0.01171875,0.0,0.0,0.0
62563286,49836,0,1.00390625,-0.0234375,0.013671875,-0.009765625,0.0,0.0,0.0
62564537,49837,0,1.009765625,-0.02734375,0.013671875,-0.013671875,0.0,0.0,0.0
62565789,49838,0,1.001953125,-0.0234375,0.017578125,-0.005859375,0.0,0.0,0.0
62567039,49839,0,0.998046875,-0.025390625,0.015625,-0.009765625,0.0,0.0,0.0
62568289,49840,0,1.00390625,-0.025390625,0.017578125,-0.0078125,0.0,0.0,0.0
62569541,49841,0,1.0078125,-0.01953125,0.013671875,-0.005859375,0.0,0.0,0.0
62570792,49842,0,1.005859375,-0.02734375,0.021484375,-0.005859375,0.0,0.0,0.0
62572044,49843,0,1.001953125,-0.0234375,0.013671875,-0.009765625,0.0,0.0,0.0
62573294,49844,0,1.00390625,-0.0234375,0.015625,-0.0078125,0.0,0.0,0.0
62574544,49845,0,1.0078125,-0.021484375,0.0234375,0.001953125,0.0,0.0,0.0
62575795,49846,0,0.998046875,-0.017578125,0.01171875,-0.005859375,0.0,0.0,0.0
62577045,49847,0,1.001953125,-0.013671875,0.02734375,0.013671875,0.0,0.0,0.0
62578295,49848,0,1.005859375,0.001953125,0.033203125,0.03515625,0.0,0.0,0.0
62579546,49849,0,0.998046875,0.029296875,0.029296875,0.05859375,0.0,0.0,0.0
62580797,49850,0,1.01171875,0.0078125,0.033203125,0.041015625,0.0,0.0,0.0
62582048,49851,0,1.017578125,-0.029296875,0.01953125,-0.009765625,0.0,0.0,0.0
62583299,49852,0,1.009765625,-0.052734375,0.005859375,-0.046875,0.0,0.0,0.0
62584550,49853,0,0.9921875,-0.06640625,-0.013671875,-0.080078125,0.0,0.0,0.0
62585800,49854,0,1.005859375,-0.044921875,0.005859375,-0.0390625,0.0,0.0,0.0
62587052,49855,0,1.005859375,-0.0234375,0.015625,-0.0078125,0.0,0.0,0.0
62588303,49856,0,1.0078125,-0.029296875,0.021484375,-0.0078125,0.0,0.0,0.0
62589554,49857,0,1.005859375,-0.05078125,0.0,-0.05078125,0.0,0.0,0.0
62590805,49858,0,1.001953125,-0.068359375,0.001953125,-0.06640625,0.0,0.0,0.0
62592057,49859,0,1.001953125,-0.052734375,-0.00390625,-0.056640625,0.0,0.0,0.0
62593308,49860,0,1.00390625,0.013671875,0.029296875,0.04296875,0.0,0.0,0.0
62594560,49861,0,1.025390625,0.01953125,0.03125,0.05078125,0.0,0.0,0.0
62595811,49862,0,0.986328125,0.0,0.029296875,0.029296875,0.0,0.0,0.0
62597063,49863,0,1.021484375,-0.00390625,0.025390625,0.021484375,0.0,0.0,0.0
62598314,49864,0,0.99609375,-0.046875,0.013671875,-0.033203125,0.0,0.0,0.0
62599565,49865,0,1.001953125,-0.04296875,0.0,-0.04296875,0.0,0.0,0.0
62600816,49866,0,1.0,-0.009765625,0.029296875,0.01953125,0.0,0.0,0.0
62602066,49867,0,1.01953125,-0.009765625,0.01953125,0.009765625,0.0,0.0,0.0
62603318,49868,0,1.01171875,-0.04296875,0.0078125,-0.03515625,0.0,0.0,0.0
62604569,49869,0,0.9921875,-0.0390625,0.01953125,-0.01953125,0.0,0.0,0.0
62605819,49870,0,1.0234375,-0.037109375,0.013671875,-0.0234375,0.0,0.0,0.0
62607070,49871,0,0.986328125,-0.041015625,0.013671875,-0.02734375,0.0,0.0,0.0
62608321,49872,0,1.00390625,-0.0078125,0.01953125,0.01171875,0.0,0.0,0.0
62609572,49873,0,1.005859375,-0.013671875,0.015625,0.001953125,0.0,0.0,0.0
62610823,49874,0,1.001953125,-0.04296875,0.001953125,-0.041015625,0.0,0.0,0.0
62612074,49875,0,1.00390625,-0.080078125,-0.00390625,-0.083984375,0.0,0.0,0.0
62613325,49876,0,0.974609375,-0.01953125,0.025390625,0.005859375,0.0,0.0,0.0
62614575,49877,0,1.01953125,-0.005859375,-0.009765625,-0.015625,0.0,0.0,0.0
62615825,49878,0,0.99609375,0.0,0.05078125,0.05078125,0.0,0.0,0.0
62617076,49879,0,1.044921875,-0.041015625,-0.005859375,-0.046875,0.0,0.0,0.0
62618326,49880,0,0.94921875,-0.005859375,0.01953125,0.013671875,0.0,0.0,0.0
62619577,49881,0,1.0546875,-0.0234375,0.015625,-0.0078125,0.0,0.0,0.0
62620828,49882,0,0.978515625,-0.01171875,0.029296875,0.017578125,0.0,0.0,0.0
62622078,49883,0,1.05078125,-0.017578125,0.0078125,-0.009765625,0.0,0.0,0.0
62623329,49884,0,0.939453125,0.00390625,0.0234375,0.02734375,0.0,0.0,0.0
62624581,49885,0,1.0703125,-0.03125,0.0,-0.03125,0.0,0.0,0.0
62625833,49886,0,0.962890625,-0.0546875,0.009765625,-0.044921875,0.0,0.0,0.0
62627083,49887,0,1.05859375,0.0,0.029296875,0.029296875,0.0,0.0,0.0
62628333,49888,0,0.970703125,-0.107421875,-0.015625,-0.123046875,0.0,0.0,0.0
62629584,49889,0,1.048828125,-0.095703125,0.005859375,-0.08984375,0.0,0.0,0.0
62630835,49890,0,1.005859375,-0.025390625,0.017578125,-0.0078125,0.0,0.0,0.0
62632085,49891,0,0.974609375,-0.091796875,-0.021484375,-0.11328125,0.0,0.0,0.0
62633336,49892,0,1.0546875,-0.056640625,0.025390625,-0.03125,0.0,0.0,0.0
62634587,49893,0,1.0234375,-0.025390625,-0.00390625,-0.029296875,0.0,0.0,0.0
62635838,49894,0,0.978515625,-0.091796875,-0.01953125,-0.111328125,0.0,0.0,0.0
62637090,49895,0,0.990234375,0.029296875,0.0625,0.091796875,0.0,0.0,0.0
62638341,49896,0,1.060546875,0.021484375,0.001953125,0.0234375,0.0,0.0,0.0
62639592,49897,0,1.025390625,-0.06640625,0.064453125,-0.001953125,0.0,0.0,0.0
62640844,49898,0,0.91015625,-0.05859375,-0.048828125,-0.107421875,0.0,0.0,0.0
62642095,49899,0,1.09375,-0.060546875,0.048828125,-0.01171875,0.0,0.0,0.0
62643346,49900,0,0.9375,0.041015625,0.09375,0.134765625,0.0,0.0,0.0
62644597,49901,0,1.0625,-0.185546875,-0.119140625,-0.3046875,0.0,0.0,0.0
62645849,49902,0,0.93359375,-0.138671875,0.0234375,-0.115234375,0.0,0.0,0.0
62647099,49903,0,1.046875,-0.05859375,-0.02734375,-0.0859375,0.0,0.0,0.0
62648351,49904,0,0.970703125,0.021484375,0.02734375,0.048828125,0.0,0.0,0.0
62649602,49905,0,1.015625,0.08984375,0.07421875,0.1640625,0.0,0.0,0.0
62650854,49906,0,1.033203125,0.123046875,0.0546875,0.177734375,0.0,0.0,0.0
62652104,49907,0,0.998046875,0.12890625,0.0703125,0.19921875,0.0,0.0,0.0
62653354,49908,0,1.01171875,0.095703125,0.072265625,0.16796875,0.0,0.0,0.0
62654605,49909,0,1.009765625,0.046875,0.037109375,0.083984375,0.0,0.0,0.0
62655855,49910,0,1.01953125,-0.005859375,0.013671875,0.0078125,0.0,0.0,0.0
62657107,49911,0,0.986328125,-0.05859375,0.005859375,-0.052734375,0.0,0.0,0.0
62658358,49912,0,1.001953125,-0.099609375,-0.013671875,-0.11328125,0.0,0.0,0.0
62659609,49913,0,1.00390625,-0.1171875,-0.0234375,-0.140625,0.0,0.0,0.0
62660859,49914,0,1.0078125,-0.107421875,-0.01953125,-0.126953125,0.0,0.0,0.0
62662111,49915,0,0.99609375,-0.08984375,-0.009765625,-0.099609375,0.0,0.0,0.0
62663362,49916,0,1.017578125,-0.05859375,0.00390625,-0.0546875,0.0,0.0,0.0
62664613,49917,0,1.005859375,-0.00390625,0.02734375,0.0234375,0.0,0.0,0.0
62665865,49918,0,1.0234375,0.01953125,0.029296875,0.048828125,0.0,0.0,0.0
62667115,49919,0,1.005859375,0.02734375,0.03125,0.05859375,0.0,0.0,0.0
62668365,49920,0,0.99609375,0.021484375,0.029296875,0.05078125,0.0,0.0,0.0
62669617,49921,0,1.0078125,0.009765625,0.029296875,0.0390625,0.0,0.0,0.0
62670867,49922,0,1.01171875,-0.009765625,0.021484375,0.01171875,0.0,0.0,-131.33462524414062
62673369,49924,0,1.001953125,-0.05078125,0.009765625,-0.041015625,0.0,0.0,0.0
62674620,49925,0,1.015625,-0.056640625,-0.009765625,-0.06640625,0.0,0.0,0.0
62675871,49926,0,1.0,-0.068359375,-0.001953125,-0.0703125,0.0,0.0,0.0
62677123,49927,0,0.994140625,-0.05859375,0.00390625,-0.0546875,0.0,0.0,0.0
62678374,49928,0,1.013671875,-0.05078125,0.009765625,-0.041015625,0.0,0.0,0.0
62679624,49929,0,0.998046875,-0.037109375,0.013671875,-0.0234375,0.0,0.0,0.0
62680875,49930,0,0.994140625,-0.0234375,0.015625,-0.0078125,0.0,0.0,0.0
62682125,49931,0,1.013671875,-0.013671875,0.021484375,0.0078125,0.0,0.0,0.0
62683375,49932,0,1.015625,-0.00390625,0.021484375,0.017578125,0.0,0.0,0.0
62684626,49933,0,0.994140625,-0.001953125,0.017578125,0.015625,0.0,0.0,0.0
62685877,49934,0,1.00390625,-0.005859375,0.025390625,0.01953125,0.0,0.0,0.0
62687129,49935,0,1.009765625,-0.013671875,0.013671875,0.0,0.0,0.0,0.0
62688380,49936,0,1.00390625,-0.0234375,0.01953125,-0.00390625,0.0,0.0,0.0
62689630,49937,0,1.00390625,-0.029296875,0.017578125,-0.01171875,0.0,0.0,0.0
62690881,49938,0,1.00390625,-0.03515625,0.013671875,-0.021484375,0.0,0.0,0.0
62692133,49939,0,0.998046875,-0.04296875,0.009765625,-0.033203125,0.0,0.0,0.0
62693384,49940,0,0.998046875,-0.0390625,0.015625,-0.0234375,0.0,0.0,0.0
62694634,49941,0,1.00390625,-0.033203125,0.01171875,-0.021484375,0.0,0.0,0.0
62695886,49942,0,1.001953125,-0.037109375,0.0078125,-0.029296875,0.0,0.0,0.0
62697136,49943,0,0.998046875,-0.0234375,0.017578125,-0.005859375,0.0,0.0,0.0
62698386,49944,0,1.009765625,-0.017578125,0.02734375,0.009765625,0.0,0.0,0.0
62699638,49945,0,1.0078125,-0.01953125,0.017578125,-0.001953125,0.0,0.0,0.0
62700888,49946,0,1.00390625,-0.017578125,0.01953125,0.001953125,0.0,0.0,0.0
62702139,49947,0,1.01171875,-0.013671875,0.015625,0.001953125,0.0,0.0,0.0
62703391,49948,0,1.0078125,-0.01953125,0.021484375,0.001953125,0.0,0.0,0.0
62704641,49949,0,1.001953125,-0.021484375,0.0234375,0.001953125,0.0,0.0,0.0
62705892,49950,0,1.005859375,-0.021484375,0.017578125,-0.00390625,0.0,0.0,0.0
62707142,49951,0,1.01171875,-0.03125,0.017578125,-0.013671875,0.0,0.0,0.0
62708393,49952,0,0.998046875,-0.03515625,0.01953125,-0.015625,0.0,0.0,0.0
62709645,49953,0,1.005859375,-0.03515625,0.01171875,-0.0234375,0.0,0.0,0.0
62710895,49954,0,1.0078125,-0.03515625,0.009765625,-0.025390625,0.0,0.0,0.0
62712147,49955,0,1.005859375,-0.033203125,0.013671875,-0.01953125,0.0,0.0,0.0
62713397,49956,0,0.998046875,-0.02734375,0.009765625,-0.017578125,0.0,0.0,0.0
62714649,49957,0,1.0,-0.03515625,0.013671875,-0.021484375,0.0,0.0,0.0
62715899,49958,0,1.0078125,-0.0234375,0.021484375,-0.001953125,0.0,0.0,0.0
62717149,49959,0,0.99609375,-0.01953125,0.01953125,0.0,0.0,0.0,0.0
62718399,49960,0,1.013671875,-0.0234375,0.013671875,-0.009765625,0.0,0.0,0.0
62719650,49961,0,0.99609375,-0.025390625,0.017578125,-0.0078125,0.0,0.0,0.0
62720902,49962,0,1.001953125,-0.02734375,0.01953125,-0.0078125,0.0,0.0,0.0
62722153,49963,0,1.0078125,-0.025390625,0.015625,-0.009765625,0.0,0.0,0.0
62723404,49964,0,1.001953125,-0.03125,0.01953125,-0.01171875,0.0,0.0,0.0
62724654,49965,0,1.00390625,-0.025390625,0.015625,-0.009765625,0.0,0.0,0.0
62725904,49966,0,1.0078125,-0.02734375,0.013671875,-0.013671875,0.0,0.0,0.0
62727155,49967,0,1.00390625,-0.03515625,0.015625,-0.01953125,0.0,0.0,0.0
62728407,49968,0,1.0,-0.025390625,0.017578125,-0.0078125,0.0,0.0,0.0
62729657,49969,0,1.0078125,-0.02734375,0.013671875,-0.013671875,0.0,0.0,0.0
62730909,49970,0,1.00390625,-0.029296875,0.013671875,-0.015625,0.0,0.0,0.0
62732159,49971,0,1.00390625,-0.0234375,0.013671875,-0.009765625,0.0,0.0,0.0
62733409,49972,0,1.001953125,-0.025390625,0.015625,-0.009765625,0.0,0.0,0.0
62734661,49973,0,1.01171875,-0.02734375,0.013671875,-0.013671875,0.0,0.0,0.0
62735911,49974,0,1.00390625,-0.025390625,0.013671875,-0.01171875,0.0,0.0,0.0
62737161,49975,0,0.99609375,-0.02734375,0.015625,-0.01171875,0.0,0.0,0.0
62738411,49976,0,1.0,-0.029296875,0.017578125,-0.01171875,0.0,0.0,0.0
62739663,49977,0,1.0078125,-0.02734375,0.017578125,-0.009765625,0.0,0.0,0.0
62740913,49978,0,1.009765625,-0.025390625,0.015625,-0.009765625,0.0,0.0,0.0
62742164,49979,0,1.01171875,-0.02734375,0.01171875,-0.015625,0.0,0.0,0.0
62743415,49980,0,1.01171875,-0.0234375,0.00390625,-0.01953125,0.0,0.0,0.0
62744666,49981,0,1.0,-0.0234375,0.015625,-0.0078125,0.0,0.0,0.0
62745916,49982,0,1.00390625,-0.0234375,0.01171875,-0.01171875,0.0,0.0,0.0
62747167,49983,0,1.005859375,-0.02734375,0.021484375,-0.005859375,0.0,0.0,0.0
62748417,49984,0,1.0078125,-0.025390625,0.01953125,-0.005859375,0.0,0.0,0.0
62749668,49985,0,1.005859375,-0.0234375,0.017578125,-0.005859375,0.0,0.0,0.0
62750920,49986,0,1.0078125,-0.0234375,0.01171875,-0.01171875,0.0,0.0,0.0
62752171,49987,0,1.00390625,-0.021484375,0.015625,-0.005859375,0.0,0.0,0.0
62753421,49988,0,1.0,-0.029296875,0.015625,-0.013671875,0.0,0.0,0.0
62754672,49989,0,1.0,-0.025390625,0.013671875,-0.01171875,0.0,0.0,0.0
62755924,49990,0,1.00390625,-0.0234375,0.015625,-0.0078125,0.0,0.0,0.0
62757174,49991,0,1.00390625,-0.0234375,0.021484375,-0.001953125,0.0,0.0,0.0
62758425,49992,0,0.998046875,-0.029296875,0.017578125,-0.01171875,0.0,0.0,0.0
62759677,49993,0,1.005859375,-0.0234375,0.015625,-0.0078125,0.0,0.0,0.0
62760927,49994,0,1.005859375,-0.029296875,0.017578125,-0.01171875,0.0,0.0,0.0
62762177,49995,0,1.0078125,-0.029296875,0.021484375,-0.0078125,0.0,0.0,0.0
62763429,49996,0,1.0078125,-0.03515625,0.021484375,-0.013671875,0.0,0.0,0.0
62764679,49997,0,0.998046875,-0.025390625,0.017578125,-0.0078125,0.0,0.0,0.0
62765931,49998,0,1.0,-0.021484375,0.01953125,-0.001953125,0.0,0.0,0.0
62767181,49999,0,1.005859375,-0.025390625,0.021484375,-0.00390625,0.0,0.0,0.0
62768431,50000,0,1.00390625,-0.0234375,0.005859375,-0.017578125,0.0,0.0,0.0
62769683,50001,0,1.01171875,-0.025390625,0.01953125,-0.005859375,0.0,0.0,0.0
62770933,50002,0,1.0078125,-0.0234375,0.01171875,-0.01171875,0.0,0.0,0.0
62772183,50003,0,1.009765625,-0.025390625,0.0234375,-0.001953125,0.0,0.0,0.0
62773434,50004,0,1.001953125,-0.025390625,0.015625,-0.009765625,0.0,0.0,0.0
62774685,50005,0,0.998046875,-0.0234375,0.013671875,-0.009765625,0.0,0.0,0.0
62775936,50006,0,1.001953125,-0.029296875,0.013671875,-0.015625,0.0,0.0,0.0
62777186,50007,0,1.0078125,-0.025390625,0.009765625,-0.015625,0.0,0.0,0.0
62778437,50008,0,1.0,-0.02734375,0.013671875,-0.013671875,0.0,0.0,0.0
62779687,50009,0,1.005859375,-0.021484375,0.017578125,-0.00390625,0.0,0.0,0.0
62780937,50010,0,1.00390625,-0.025390625,0.017578125,-0.0078125,0.0,0.0,0.0
62782188,50011,0,1.00390625,-0.021484375,0.01171875,-0.009765625,0.0,0.0,0.0
62783440,50012,0,1.005859375,-0.01953125,0.013671875,-0.005859375,0.0,0.0,0.0
62784690,50013,0,1.0,-0.02734375,0.005859375,-0.021484375,0.0,0.0,0.0
62785942,50014,0,1.00390625,-0.025390625,0.009765625,-0.015625,0.0,0.0,0.0
62787193,50015,0,1.00390625,-0.02734375,0.017578125,-0.009765625,0.0,0.0,0.0
62788445,50016,0,1.0078125,-0.025390625,0.015625,-0.009765625,0.0,0.0,0.0
62789695,50017,0,1.001953125,-0.033203125,0.017578125,-0.015625,0.0,0.0,0.0
62790947,50018,0,1.001953125,-0.029296875,0.009765625,-0.01953125,0.0,0.0,0.0
62792198,50019,0,1.0,-0.025390625,0.01953125,-0.005859375,0.0,0.0,0.0
62793450,50020,0,0.99609375,-0.017578125,0.0234375,0.005859375,0.0,0.0,0.0
62794700,50021,0,1.013671875,-0.025390625,0.013671875,-0.01171875,0.0,0.0,0.0
62795952,50022,0,1.0,-0.025390625,0.009765625,-0.015625,0.0,0.0,0.0
62797203,50023,0,1.005859375,-0.0234375,0.01953125,-0.00390625,0.0,0.0,0.0
62798454,50024,0,1.00390625,-0.01953125,0.015625,-0.00390625,0.0,0.0,0.0
62799705,50025,0,0.998046875,-0.029296875,0.01171875,-0.017578125,0.0,0.0,0.0
62800957,50026,0,1.0,-0.03125,0.015625,-0.015625,0.0,0.0,0.0
62802207,50027,0,1.0078125,-0.03515625,0.013671875,-0.021484375,0.0,0.0,0.0
62803459,50028,0,1.0,-0.03125,0.005859375,-0.025390625,0.0,0.0,0.0
62804709,50029,0,1.0,-0.03125,0.017578125,-0.013671875,0.0,0.0,0.0
62805959,50030,0,1.005859375,-0.02734375,0.017578125,-0.009765625,0.0,0.0,0.0
62807209,50031,0,1.001953125,-0.033203125,0.013671875,-0.01953125,0.0,0.0,0.0
62808459,50032,0,1.001953125,-0.03125,0.015625,-0.015625,0.0,0.0,0.0
62809711,50033,0,1.0078125,-0.0234375,0.015625,-0.0078125,0.0,0.0,0.0
62810961,50034,0,1.009765625,-0.025390625,0.013671875,-0.01171875,0.0,0.0,0.0
62812213,50035,0,1.0,-0.02734375,0.017578125,-0.009765625,0.0,0.0,0.0
62813464,50036,0,1.005859375,-0.025390625,0.017578125,-0.0078125,0.0,0.0,0.0
62814715,50037,0,1.0,-0.025390625,0.01171875,-0.013671875,0.0,0.0,0.0
62815966,50038,0,1.005859375,-0.025390625,0.01953125,-0.005859375,0.0,0.0,0.0
62817216,50039,0,0.998046875,-0.02734375,0.017578125,-0.009765625,0.0,0.0,0.0
62818467,50040,0,1.005859375,-0.025390625,0.013671875,-0.01171875,0.0,0.0,0.0
62819718,50041,0,1.015625,-0.029296875,0.0078125,-0.021484375,0.0,0.0,0.0
62820968,50042,0,1.013671875,-0.03125,0.015625,-0.015625,0.0,0.0,0.0
62822219,50043,0,0.99609375,-0.029296875,0.01953125,-0.009765625,0.0,0.0,0.0
62823470,50044,0,1.0,-0.025390625,0.025390625,0.0,0.0,0.0,0.0
62824721,50045,0,1.001953125,-0.02734375,0.015625,-0.01171875,0.0,0.0,0.0
62825971,50046,0,0.998046875,-0.02734375,0.01953125,-0.0078125,0.0,0.0,0.0
62827223,50047,0,1.0,-0.025390625,0.015625,-0.009765625,0.0,0.0,0.0
62828473,50048,0,1.00390625,-0.02734375,0.009765625,-0.017578125,0.0,0.0,0.0
62829723,50049,0,1.001953125,-0.029296875,0.013671875,-0.015625,0.0,0.0,0.0
62830975,50050,0,1.00390625,-0.029296875,0.017578125,-0.01171875,0.0,0.0,0.0
62832226,50051,0,1.0078125,-0.029296875,0.01171875,-0.017578125,0.0,0.0,0.0
62833476,50052,0,1.009765625,-0.02734375,0.013671875,-0.013671875,0.0,0.0,0.0
62834728,50053,0,1.00390625,-0.03125,0.017578125,-0.013671875,0.0,0.0,0.0
62835979,50054,0,1.005859375,-0.029296875,0.015625,-0.013671875,0.0,0.0,0.0
62837229,50055,0,1.00390625,-0.025390625,0.015625,-0.009765625,0.0,0.0,0.0
62838481,50056,0,1.001953125,-0.029296875,0.01171875,-0.017578125,0.0,0.0,0.0
62839731,50057,0,1.00390625,-0.029296875,0.01953125,-0.009765625,0.0,0.0,0.0
62840981,50058,0,1.005859375,-0.025390625,0.015625,-0.009765625,0.0,0.0,0.0
62842232,50059,0,1.0078125,-0.02734375,0.01953125,-0.0078125,0.0,0.0,0.0
62843483,50060,0,1.0078125,-0.02734375,0.017578125,-0.009765625,0.0,0.0,0.0
62844734,50061,0,1.00390625,-0.029296875,0.0078125,-0.021484375,0.0,0.0,0.0
62845986,50062,0,1.005859375,-0.02734375,0.01953125,-0.0078125,0.0,0.0,0.0
62847236,50063,0,0.998046875,-0.025390625,0.015625,-0.009765625,0.0,0.0,0.0
62848486,50064,0,1.0078125,-0.02734375,0.01171875,-0.015625,0.0,0.0,0.0
62849737,50065,0,1.0078125,-0.01953125,0.021484375,0.001953125,0.0,0.0,0.0
62850987,50066,0,1.005859375,-0.029296875,0.017578125,-0.01171875,0.0,0.0,0.0
62852238,50067,0,1.0078125,-0.025390625,0.01953125,-0.005859375,0.0,0.0,0.0
62853489,50068,0,1.005859375,-0.02734375,0.015625,-0.01171875,0.0,0.0,0.0
62854740,50069,0,1.001953125,-0.02734375,0.017578125,-0.009765625,0.0,0.0,0.0
62855991,50070,0,1.0078125,-0.0234375,0.017578125,-0.005859375,0.0,0.0,0.0
62857241,50071,0,1.001953125,-0.025390625,0.01171875,-0.013671875,0.0,0.0,0.0
62858492,50072,0,1.005859375,-0.025390625,0.015625,-0.009765625,0.0,0.0,0.0
62859744,50073,0,1.00390625,-0.0234375,0.01171875,-0.01171875,0.0,0.0,0.0
62860994,50074,0,1.005859375,-0.029296875,0.013671875,-0.015625,0.0,0.0,0.0
62862245,50075,0,1.001953125,-0.02734375,0.01171875,-0.015625,0.0,0.0,0.0
62863496,50076,0,1.00390625,-0.025390625,0.01953125,-0.005859375,0.0,0.0,0.0
62864747,50077,0,1.001953125,-0.02734375,0.015625,-0.01171875,0.0,0.0,0.0
62865998,50078,0,1.0,-0.025390625,0.013671875,-0.01171875,0.0,0.0,0.0
62867249,50079,0,0.998046875,-0.029296875,0.017578125,-0.01171875,0.0,0.0,0.0
62868499,50080,0,1.005859375,-0.02734375,0.015625,-0.01171875,0.0,0.0,0.0
62869751,50081,0,1.00390625,-0.029296875,0.017578125,-0.01171875,0.0,0.0,0.0
62871002,50082,0,1.005859375,-0.0234375,0.0078125,-0.015625,0.0,0.0,0.0
62872253,50083,0,0.998046875,-0.025390625,0.015625,-0.009765625,0.0,0.0,0.0
62873503,50084,0,1.0,-0.02734375,0.015625,-0.01171875,0.0,0.0,0.0
62874755,50085,0,1.00390625,-0.021484375,0.017578125,-0.00390625,0.0,0.0,0.0
62876005,50086,0,1.001953125,-0.0234375,0.009765625,-0.013671875,0.0,0.0,0.0
62877256,50087,0,1.0078125,-0.02734375,0.005859375,-0.021484375,0.0,0.0,0.0
62878506,50088,0,1.005859375,-0.029296875,0.017578125,-0.01171875,0.0,0.0,0.0
62879757,50089,0,1.00390625,-0.02734375,0.005859375,-0.021484375,0.0,0.0,0.0
62881008,50090,0,1.0078125,-0.029296875,0.01953125,-0.009765625,0.0,0.0,0.0
62882258,50091,0,1.005859375,-0.025390625,0.015625,-0.009765625,0.0,0.0,0.0
62883508,50092,0,1.001953125,-0.029296875,0.013671875,-0.015625,0.0,0.0,0.0
62884759,50093,0,1.001953125,-0.025390625,0.015625,-0.009765625,0.0,0.0,0.0
62886009,50094,0,1.005859375,-0.02734375,0.01171875,-0.015625,0.0,0.0,0.0
62887259,50095,0,1.00390625,-0.0234375,0.013671875,-0.009765625,0.0,0.0,0.0
62888510,50096,0,1.005859375,-0.03125,0.013671875,-0.017578125,0.0,0.0,0.0
62889762,50097,0,1.00390625,-0.0234375,0.013671875,-0.009765625,0.0,0.0,0.0
62891012,50098,0,1.0078125,-0.029296875,0.013671875,-0.015625,0.0,0.0,0.0
62892271,50099,0,1.00390625,-0.02734375,0.01171875,-0.015625,0.0,0.0,0.0
62893521,50100,0,1.00390625,-0.02734375,0.01953125,-0.0078125,0.0,0.0,0.0
62894773,50101,0,1.0078125,-0.025390625,0.0078125,-0.017578125,0.0,0.0,0.0
62896023,50102,0,1.009765625,-0.021484375,0.013671875,-0.0078125,0.0,0.0,0.0
62897274,50103,0,1.005859375,-0.025390625,0.01171875,-0.013671875,0.0,0.0,0.0
62898525,50104,0,1.0,-0.02734375,0.015625,-0.01171875,0.0,0.0,0.0
62899776,50105,0,1.0078125,-0.029296875,0.017578125,-0.01171875,0.0,0.0,0.0
62901026,50106,0,1.005859375,-0.03125,0.005859375,-0.025390625,0.0,0.0,0.0
62902276,50107,0,1.001953125,-0.02734375,0.0078125,-0.01953125,0.0,0.0,0.0
62903527,50108,0,0.99609375,-0.02734375,0.021484375,-0.005859375,0.0,0.0,0.0
62904778,50109,0,0.998046875,-0.0234375,0.01953125,-0.00390625,0.0,0.0,0.0
62906029,50110,0,1.0,-0.021484375,0.017578125,-0.00390625,0.0,0.0,0.0
62907280,50111,0,0.99609375,-0.033203125,0.01953125,-0.013671875,0.0,0.0,0.0
62908531,50112,0,0.99609375,-0.03125,0.013671875,-0.017578125,0.0,0.0,0.0
62909783,50113,0,1.009765625,-0.025390625,0.017578125,-0.0078125,0.0,0.0,0.0
62911034,50114,0,1.001953125,-0.02734375,0.013671875,-0.013671875,0.0,0.0,0.0
62912286,50115,0,1.001953125,-0.025390625,0.013671875,-0.01171875,0.0,0.0,0.0
62913537,50116,0,1.001953125,-0.02734375,0.015625,-0.01171875,0.0,0.0,0.0
62914789,50117,0,1.001953125,-0.025390625,0.01953125,-0.005859375,0.0,0.0,0.0
62916039,50118,0,1.001953125,-0.0234375,0.017578125,-0.005859375,0.0,0.0,0.0
62917289,50119,0,1.00390625,-0.025390625,0.013671875,-0.01171875,0.0,0.0,0.0
62918541,50120,0,1.00390625,-0.025390625,0.013671875,-0.01171875,0.0,0.0,0.0
62919792,50121,0,0.998046875,-0.02734375,0.017578125,-0.009765625,0.0,0.0,0.0
62921044,50122,0,1.00390625,-0.025390625,0.017578125,-0.0078125,0.0,0.0,0.0
62922294,50123,0,1.0078125,-0.0234375,0.009765625,-0.013671875,0.0,0.0,0.0
62923544,50124,0,1.0078125,-0.03125,0.005859375,-0.025390625,0.0,0.0,0.0
62924795,50125,0,1.005859375,-0.029296875,0.013671875,-0.015625,0.0,0.0,0.0
62926045,50126,0,1.005859375,-0.025390625,0.001953125,-0.0234375,0.0,0.0,0.0
62927295,50127,0,1.0078125,-0.03125,0.009765625,-0.021484375,0.0,0.0,0.0
62928546,50128,0,0.99609375,-0.02734375,0.009765625,-0.017578125,0.0,0.0,0.0
62929797,50129,0,1.0078125,-0.029296875,0.021484375,-0.0078125,0.0,0.0,0.0
62931048,50130,0,1.0,-0.025390625,0.021484375,-0.00390625,0.0,0.0,0.0
62932299,50131,0,1.00390625,-0.021484375,0.01171875,-0.009765625,0.0,0.0,0.0
62933550,50132,0,0.99609375,-0.029296875,0.015625,-0.013671875,0.0,0.0,0.0
62934800,50133,0,1.00390625,-0.025390625,0.01171875,-0.013671875,0.0,0.0,0.0
62936052,50134,0,1.001953125,-0.025390625,0.01953125,-0.005859375,0.0,0.0,0.0
62937303,50135,0,1.001953125,-0.0234375,0.0078125,-0.015625,0.0,0.0,0.0
62938554,50136,0,1.001953125,-0.025390625,0.01171875,-0.013671875,0.0,0.0,0.0
62939805,50137,0,1.005859375,-0.029296875,0.009765625,-0.01953125,0.0,0.0,0.0
62941057,50138,0,1.001953125,-0.02734375,0.017578125,-0.009765625,0.0,0.0,0.0
62942308,50139,0,1.001953125,-0.029296875,0.015625,-0.013671875,0.0,0.0,0.0
62943560,50140,0,1.00390625,-0.0234375,0.01171875,-0.01171875,0.0,0.0,0.0
62944811,50141,0,1.001953125,-0.02734375,0.015625,-0.01171875,0.0,0.0,0.0
62946063,50142,0,1.0078125,-0.02734375,0.01953125,-0.0078125,0.0,0.0,0.0
62947314,50143,0,1.005859375,-0.025390625,0.013671875,-0.01171875,0.0,0.0,0.0
62948565,50144,0,1.00390625,-0.029296875,0.01953125,-0.009765625,0.0,0.0,0.0
62949816,50145,0,1.00390625,-0.025390625,0.017578125,-0.0078125,0.0,0.0,0.0
62951066,50146,0,1.005859375,-0.025390625,0.01171875,-0.013671875,0.0,0.0,0.0
62952318,50147,0,1.015625,-0.03125,0.017578125,-0.013671875,0.0,0.0,0.0
62953569,50148,0,0.990234375,-0.025390625,0.015625,-0.009765625,0.0,0.0,0.0
62954819,50149,0,1.00390625,-0.025390625,0.017578125,-0.0078125,0.0,0.0,0.0
62956070,50150,0,0.99609375,-0.025390625,0.017578125,-0.0078125,0.0,0.0,0.0
62957321,50151,0,1.005859375,-0.03125,0.001953125,-0.029296875,0.0,0.0,0.0
62958572,50152,0,1.009765625,-0.03125,0.015625,-0.015625,0.0,0.0,0.0
62959823,50153,0,1.001953125,-0.021484375,0.013671875,-0.0078125,0.0,0.0,0.0
62961074,50154,0,1.015625,-0.029296875,0.015625,-0.013671875,0.0,0.0,0.0
62962325,50155,0,1.00390625,-0.02734375,0.017578125,-0.009765625,0.0,0.0,0.0
62963575,50156,0,1.005859375,-0.0234375,0.01953125,-0.00390625,0.0,0.0,0.0
62964825,50157,0,1.0,-0.025390625,0.01953125,-0.005859375,0.0,0.0,0.0
62966076,50158,0,1.001953125,-0.029296875,0.013671875,-0.015625,0.0,0.0,0.0
62967326,50159,0,1.001953125,-0.03125,0.017578125,-0.013671875,0.0,0.0,0.0
62968577,50160,0,1.005859375,-0.02734375,0.015625,-0.01171875,0.0,0.0,0.0
62969828,50161,0,1.00390625,-0.025390625,0.017578125,-0.0078125,0.0,0.0,0.0
62971078,50162,0,1.00390625,-0.02734375,0.017578125,-0.009765625,0.0,0.0,0.0
62972329,50163,0,1.001953125,-0.025390625,0.017578125,-0.0078125,0.0,0.0,0.0
62973581,50164,0,1.0,-0.0234375,0.017578125,-0.005859375,0.0,0.0,0.0
62974833,50165,0,1.0,-0.025390625,0.013671875,-0.01171875,0.0,0.0,0.0
62976083,50166,0,1.0078125,-0.029296875,0.017578125,-0.01171875,0.0,0.0,0.0
62977333,50167,0,1.005859375,-0.02734375,0.015625,-0.01171875,0.0,0.0,0.0
62978584,50168,0,0.998046875,-0.025390625,0.015625,-0.009765625,0.0,0.0,0.0
62979835,50169,0,0.998046875,-0.025390625,0.01171875,-0.013671875,0.0,0.0,0.0
62981085,50170,0,1.009765625,-0.021484375,0.015625,-0.005859375,0.0,0.0,0.0
62982336,50171,0,1.005859375,-0.025390625,0.017578125,-0.0078125,0.0,0.0,0.0
62983587,50172,0,0.99609375,-0.0234375,0.0078125,-0.015625,0.0,0.0,0.0
62984838,50173,0,1.013671875,-0.0234375,0.015625,-0.0078125,0.0,0.0,0.0
62986090,50174,0,0.998046875,-0.029296875,0.013671875,-0.015625,0.0,0.0,0.0
62987341,50175,0,1.001953125,-0.025390625,0.021484375,-0.00390625,0.0,0.0,0.0
62988592,50176,0,1.005859375,-0.025390625,0.015625,-0.009765625,0.0,0.0,0.0
62989844,50177,0,1.0,-0.025390625,0.015625,-0.009765625,0.0,0.0,0.0
62991095,50178,0,1.0,-0.0234375,0.015625,-0.0078125,0.0,0.0,0.0
62992346,50179,0,1.0,-0.02734375,0.015625,-0.01171875,0.0,0.0,0.0
62993597,50180,0,1.001953125,-0.029296875,0.009765625,-0.01953125,0.0,0.0,0.0
62994849,50181,0,1.00390625,-0.02734375,0.017578125,-0.009765625,0.0,0.0,0.0
62996099,50182,0,1.0078125,-0.025390625,0.015625,-0.009765625,0.0,0.0,0.0
62997351,50183,0,1.001953125,-0.025390625,0.015625,-0.009765625,0.0,0.0,0.0
62998602,50184,0,1.0078125,-0.02734375,0.01171875,-0.015625,0.0,0.0,0.0
62999854,50185,0,1.009765625,-0.02734375,0.013671875,-0.013671875,0.0,0.0,0.0
63001104,50186,0,1.005859375,-0.025390625,0.009765625,-0.015625,0.0,0.0,0.0
63002354,50187,0,1.001953125,-0.025390625,0.013671875,-0.01171875,0.0,0.0,0.0
63003605,50188,0,1.005859375,-0.0234375,0.009765625,-0.013671875,0.0,0.0,0.0
63004855,50189,0,1.00390625,-0.02734375,0.013671875,-0.013671875,0.0,0.0,0.0
63006107,50190,0,0.998046875,-0.02734375,0.00390625,-0.0234375,0.0,0.0,0.0
63007358,50191,0,1.001953125,-0.029296875,0.009765625,-0.01953125,0.0,0.0,0.0
63008609,50192,0,1.0078125,-0.025390625,0.013671875,-0.01171875,0.0,0.0,0.0
63009859,50193,0,1.01171875,-0.02734375,0.009765625,-0.017578125,0.0,0.0,0.0
63011111,50194,0,1.0078125,-0.029296875,0.017578125,-0.01171875,0.0,0.0,0.0
63012362,50195,0,1.0078125,-0.0234375,0.0078125,-0.015625,0.0,0.0,0.0
63013613,50196,0,1.0,-0.025390625,0.017578125,-0.0078125,0.0,0.0,0.0
63014865,50197,0,0.994140625,-0.0234375,0.021484375,-0.001953125,0.0,0.0,0.0
63016115,50198,0,1.015625,-0.0234375,0.013671875,-0.009765625,0.0,0.0,0.0
63017365,50199,0,1.001953125,-0.025390625,0.013671875,-0.01171875,0.0,0.0,0.0
63018617,50200,0,1.001953125,-0.02734375,0.017578125,-0.009765625,0.0,0.0,0.0
63019867,50201,0,1.009765625,-0.025390625,0.017578125,-0.0078125,0.0,0.0,0.0
63021118,50202,0,1.0,-0.02734375,0.017578125,-0.009765625,0.0,0.0,0.0
63022369,50203,0,1.0,-0.025390625,0.013671875,-0.01171875,0.0,0.0,0.0
63023620,50204,0,1.005859375,-0.025390625,0.013671875,-0.01171875,0.0,0.0,0.0
63024871,50205,0,1.001953125,-0.0234375,0.01171875,-0.01171875,0.0,0.0,0.0
63026123,50206,0,1.005859375,-0.029296875,0.005859375,-0.0234375,0.0,0.0,0.0
63027374,50207,0,1.0078125,-0.025390625,0.017578125,-0.0078125,0.0,0.0,0.0
63028624,50208,0,1.005859375,-0.025390625,0.017578125,-0.0078125,0.0,0.0,0.0
63029875,50209,0,1.009765625,-0.021484375,0.01953125,-0.001953125,0.0,0.0,0.0
63031125,50210,0,1.0078125,-0.0234375,0.015625,-0.0078125,0.0,0.0,0.0
63032375,50211,0,1.005859375,-0.021484375,0.01953125,-0.001953125,0.0,0.0,0.0
63033626,50212,0,1.001953125,-0.02734375,0.005859375,-0.021484375,0.0,0.0,0.0
63034877,50213,0,1.0,-0.025390625,0.013671875,-0.01171875,0.0,0.0,0.0
63036129,50214,0,0.998046875,-0.02734375,0.01171875,-0.015625,0.0,0.0,0.0
63037380,50215,0,1.0078125,-0.025390625,0.015625,-0.009765625,0.0,0.0,0.0
63038630,50216,0,1.009765625,-0.02734375,0.01953125,-0.0078125,0.0,0.0,0.0
63039881,50217,0,1.009765625,-0.02734375,0.0078125,-0.01953125,0.0,0.0,0.0
63041133,50218,0,1.0,-0.02734375,0.021484375,-0.005859375,0.0,0.0,0.0
63042384,50219,0,1.0,-0.02734375,0.013671875,-0.013671875,0.0,0.0,0.0
63043634,50220,0,0.99609375,-0.02734375,0.005859375,-0.021484375,0.0,0.0,0.0
63044886,50221,0,1.001953125,-0.025390625,0.009765625,-0.015625,0.0,0.0,0.0
63046136,50222,0,1.001953125,-0.025390625,0.013671875,-0.01171875,0.0,0.0,0.0
63047386,50223,0,1.0,-0.025390625,0.015625,-0.009765625,0.0,0.0,0.0
63048638,50224,0,1.00390625,-0.025390625,0.009765625,-0.015625,0.0,0.0,0.0
63049888,50225,0,1.005859375,-0.03125,0.021484375,-0.009765625,0.0,0.0,0.0
63051139,50226,0,1.005859375,-0.02734375,0.013671875,-0.013671875,0.0,0.0,0.0
63052391,50227,0,1.0078125,-0.025390625,0.01171875,-0.013671875,0.0,0.0,0.0
63053641,50228,0,1.0078125,-0.029296875,0.01953125,-0.009765625,0.0,0.0,0.0
63054892,50229,0,1.001953125,-0.02734375,0.017578125,-0.009765625,0.0,0.0,0.0
63056142,50230,0,1.005859375,-0.0234375,0.009765625,-0.013671875,0.0,0.0,0.0
63057393,50231,0,1.001953125,-0.03125,0.015625,-0.015625,0.0,0.0,0.0
63058645,50232,0,1.005859375,-0.029296875,0.005859375,-0.0234375,0.0,0.0,0.0
63059895,50233,0,1.001953125,-0.03125,0.017578125,-0.013671875,0.0,0.0,0.0
63061147,50234,0,0.9921875,-0.0234375,0.017578125,-0.005859375,0.0,0.0,0.0
63062397,50235,0,1.0,-0.02734375,0.009765625,-0.017578125,0.0,0.0,0.0
63063649,50236,0,1.0078125,-0.033203125,0.025390625,-0.0078125,0.0,0.0,0.0
63064899,50237,0,1.001953125,-0.01953125,0.013671875,-0.005859375,0.0,0.0,0.0
63066149,50238,0,0.998046875,-0.02734375,0.01953125,-0.0078125,0.0,0.0,0.0
63067399,50239,0,1.0,-0.02734375,0.0234375,-0.00390625,0.0,0.0,0.0
63068650,50240,0,1.00390625,-0.021484375,0.01953125,-0.001953125,0.0,0.0,0.0
63069902,50241,0,1.00390625,-0.025390625,0.017578125,-0.0078125,0.0,0.0,0.0
63071153,50242,0,1.00390625,-0.02734375,0.015625,-0.01171875,0.0,0.0,0.0
63072404,50243,0,1.001953125,-0.029296875,0.01953125,-0.009765625,0.0,0.0,0.0
63073654,50244,0,1.001953125,-0.025390625,0.021484375,-0.00390625,0.0,0.0,0.0
63074904,50245,0,1.001953125,-0.025390625,0.015625,-0.009765625,0.0,0.0,0.0
63076155,50246,0,1.005859375,-0.029296875,0.017578125,-0.01171875,0.0,0.0,0.0
63077407,50247,0,0.99609375,-0.025390625,0.017578125,-0.0078125,0.0,0.0,0.0
63078657,50248,0,1.001953125,-0.02734375,0.017578125,-0.009765625,0.0,0.0,0.0
63079909,50249,0,1.0078125,-0.025390625,0.01171875,-0.013671875,0.0,0.0,0.0
63081159,50250,0,1.005859375,-0.02734375,0.0078125,-0.01953125,0.0,0.0,0.0
63082409,50251,0,1.001953125,-0.0234375,0.013671875,-0.009765625,0.0,0.0,0.0
63083661,50252,0,1.00390625,-0.029296875,0.01171875,-0.017578125,0.0,0.0,0.0
63084911,50253,0,1.001953125,-0.02734375,0.01171875,-0.015625,0.0,0.0,0.0
63086161,50254,0,1.0,-0.02734375,0.015625,-0.01171875,0.0,0.0,0.0
63087411,50255,0,1.0,-0.029296875,0.01953125,-0.009765625,0.0,0.0,0.0
63088663,50256,0,1.005859375,-0.025390625,0.01953125,-0.005859375,0.0,0.0,0.0
63089913,50257,0,1.00390625,-0.0234375,0.015625,-0.0078125,0.0,0.0,0.0
63091164,50258,0,1.001953125,-0.025390625,0.01171875,-0.013671875,0.0,0.0,0.0
63092415,50259,0,1.001953125,-0.0234375,0.017578125,-0.005859375,0.0,0.0,0.0
63093666,50260,0,1.0,-0.01953125,0.01171875,-0.0078125,0.0,0.0,0.0
63094916,50261,0,1.0078125,-0.029296875,0.015625,-0.013671875,0.0,0.0,0.0
63096167,50262,0,1.005859375,-0.033203125,0.015625,-0.017578125,0.0,0.0,0.0
63097417,50263,0,1.0078125,-0.02734375,0.013671875,-0.013671875,0.0,0.0,0.0
63098668,50264,0,1.001953125,-0.029296875,0.021484375,-0.0078125,0.0,0.0,0.0
63099920,50265,0,1.005859375,-0.025390625,0.021484375,-0.00390625,0.0,0.0,0.0
63101171,50266,0,1.001953125,-0.021484375,0.015625,-0.005859375,0.0,0.0,0.0
63102421,50267,0,1.005859375,-0.02734375,0.015625,-0.01171875,0.0,0.0,0.0
63103672,50268,0,1.0078125,-0.029296875,0.013671875,-0.015625,0.0,0.0,0.0
63104924,50269,0,1.005859375,-0.025390625,0.015625,-0.009765625,0.0,0.0,0.0
63106174,50270,0,1.0,-0.025390625,0.017578125,-0.0078125,0.0,0.0,0.0
63107425,50271,0,1.0078125,-0.03125,0.017578125,-0.013671875,0.0,0.0,0.0
63108677,50272,0,1.005859375,-0.0234375,0.017578125,-0.005859375,0.0,0.0,0.0
63109927,50273,0,1.009765625,-0.0234375,0.015625,-0.0078125,0.0,0.0,0.0
63111177,50274,0,1.005859375,-0.025390625,0.01953125,-0.005859375,0.0,0.0,0.0
63112429,50275,0,1.00390625,-0.03125,0.005859375,-0.025390625,0.0,0.0,0.0
63113679,50276,0,1.005859375,-0.021484375,0.01953125,-0.001953125,0.0,0.0,0.0
63114931,50277,0,1.001953125,-0.0234375,0.015625,-0.0078125,0.0,0.0,0.0
63116181,50278,0,1.001953125,-0.03125,0.01953125,-0.01171875,0.0,0.0,0.0
63117431,50279,0,1.00390625,-0.025390625,0.01171875,-0.013671875,0.0,0.0,0.0
63118683,50280,0,1.0,-0.029296875,0.013671875,-0.015625,0.0,0.0,0.0
63119933,50281,0,1.001953125,-0.025390625,0.017578125,-0.0078125,0.0,0.0,0.0
63121183,50282,0,1.00390625,-0.01953125,0.01171875,-0.0078125,0.0,0.0,0.0
63122434,50283,0,1.015625,-0.02734375,0.013671875,-0.013671875,0.0,0.0,0.0
63123685,50284,0,1.009765625,-0.03125,0.01953125,-0.01171875,0.0,0.0,0.0
63124936,50285,0,1.005859375,-0.025390625,0.015625,-0.009765625,0.0,0.0,0.0
63126186,50286,0,1.0,-0.021484375,0.009765625,-0.01171875,0.0,0.0,0.0
63127437,50287,0,1.001953125,-0.03515625,0.021484375,-0.013671875,0.0,0.0,0.0
63128687,50288,0,1.0078125,-0.02734375,0.015625,-0.01171875,0.0,0.0,0.0
63129937,50289,0,0.998046875,-0.025390625,0.005859375,-0.01953125,0.0,0.0,0.0
63131188,50290,0,1.0,-0.025390625,0.01953125,-0.005859375,0.0,0.0,0.0
63132440,50291,0,1.00390625,-0.025390625,0.015625,-0.009765625,0.0,0.0,0.0
63133690,50292,0,1.001953125,-0.02734375,0.01953125,-0.0078125,0.0,0.0,0.0
63134942,50293,0,1.00390625,-0.02734375,0.01953125,-0.0078125,0.0,0.0,0.0
63136193,50294,0,1.0078125,-0.0234375,0.017578125,-0.005859375,0.0,0.0,0.0
63137445,50295,0,1.0078125,-0.025390625,0.013671875,-0.01171875,0.0,0.0,0.0
63138695,50296,0,1.00390625,-0.02734375,0.009765625,-0.017578125,0.0,0.0,0.0
63139947,50297,0,1.005859375,-0.0234375,0.013671875,-0.009765625,0.0,0.0,0.0
63141198,50298,0,1.001953125,-0.025390625,0.00390625,-0.021484375,0.0,0.0,0.0
63142450,50299,0,1.0078125,-0.01953125,0.01953125,0.0,0.0,0.0,0.0
63143700,50300,0,1.005859375,-0.033203125,0.017578125,-0.015625,0.0,0.0,0.0
63144952,50301,0,1.001953125,-0.029296875,0.013671875,-0.015625,0.0,0.0,0.0
63146203,50302,0,1.017578125,-0.02734375,0.01171875,-0.015625,0.0,0.0,0.0
63147454,50303,0,1.005859375,-0.029296875,0.017578125,-0.01171875,0.0,0.0,0.0
63148705,50304,0,1.001953125,-0.025390625,0.013671875,-0.01171875,0.0,0.0,0.0
63149957,50305,0,1.009765625,-0.025390625,0.015625,-0.009765625,0.0,0.0,0.0
63151207,50306,0,1.00390625,-0.02734375,0.01171875,-0.015625,0.0,0.0,0.0
63152459,50307,0,1.0078125,-0.02734375,0.017578125,-0.009765625,0.0,0.0,0.0
63153709,50308,0,1.005859375,-0.021484375,0.01171875,-0.009765625,0.0,0.0,0.0
63154959,50309,0,1.00390625,-0.025390625,0.015625,-0.009765625,0.0,0.0,0.0
63156209,50310,0,1.005859375,-0.029296875,0.015625,-0.013671875,0.0,0.0,0.0
63157459,50311,0,1.00390625,-0.025390625,0.013671875,-0.01171875,0.0,0.0,0.0
63158711,50312,0,1.005859375,-0.029296875,0.01171875,-0.017578125,0.0,0.0,0.0
63159961,50313,0,1.0,-0.0234375,0.015625,-0.0078125,0.0,0.0,0.0
63161213,50314,0,0.998046875,-0.029296875,0.01953125,-0.009765625,0.0,0.0,0.0
63162464,50315,0,1.001953125,-0.0234375,0.017578125,-0.005859375,0.0,0.0,0.0
63163715,50316,0,1.001953125,-0.025390625,0.009765625,-0.015625,0.0,0.0,0.0
63164966,50317,0,1.0,-0.025390625,0.017578125,-0.0078125,0.0,0.0,0.0
63166216,50318,0,0.99609375,-0.02734375,0.013671875,-0.013671875,0.0,0.0,0.0
63167467,50319,0,1.013671875,-0.03125,0.0078125,-0.0234375,0.0,0.0,0.0
63168718,50320,0,1.0078125,-0.0234375,0.021484375,-0.001953125,0.0,0.0,0.0
63169968,50321,0,1.0078125,-0.029296875,0.015625,-0.013671875,0.0,0.0,0.0
63171219,50322,0,0.99609375,-0.03125,0.0078125,-0.0234375,0.0,0.0,0.0
63172470,50323,0,1.013671875,-0.025390625,0.01953125,-0.005859375,0.0,0.0,0.0
63173721,50324,0,1.00390625,-0.025390625,0.017578125,-0.0078125,0.0,0.0,0.0
63174971,50325,0,1.00390625,-0.029296875,0.015625,-0.013671875,0.0,0.0,0.0
63176223,50326,0,1.001953125,-0.029296875,0.013671875,-0.015625,0.0,0.0,0.0
63177473,50327,0,1.001953125,-0.029296875,0.01171875,-0.017578125,0.0,0.0,0.0
63178723,50328,0,1.005859375,-0.033203125,0.01171875,-0.021484375,0.0,0.0,0.0
63179975,50329,0,1.00390625,-0.025390625,0.013671875,-0.01171875,0.0,0.0,0.0
63181226,50330,0,1.0078125,-0.02734375,0.013671875,-0.013671875,0.0,0.0,0.0
63182476,50331,0,1.001953125,-0.029296875,0.017578125,-0.01171875,0.0,0.0,0.0
63183728,50332,0,0.99609375,-0.029296875,0.01171875,-0.017578125,0.0,0.0,0.0
63184979,50333,0,0.998046875,-0.029296875,0.017578125,-0.01171875,0.0,0.0,0.0
63186229,50334,0,1.00390625,-0.03125,0.009765625,-0.021484375,0.0,0.0,0.0
63187481,50335,0,1.00390625,-0.02734375,0.0078125,-0.01953125,0.0,0.0,0.0
63188731,50336,0,1.0,-0.02734375,0.015625,-0.01171875,0.0,0.0,0.0
63189981,50337,0,1.00390625,-0.02734375,0.017578125,-0.009765625,0.0,0.0,0.0
63191232,50338,0,0.998046875,-0.033203125,0.013671875,-0.01953125,0.0,0.0,0.0
63192483,50339,0,1.001953125,-0.03125,0.01171875,-0.01953125,0.0,0.0,0.0
63193734,50340,0,0.998046875,-0.029296875,0.017578125,-0.01171875,0.0,0.0,0.0
63194986,50341,0,1.017578125,-0.025390625,0.021484375,-0.00390625,0.0,0.0,0.0
63196236,50342,0,1.00390625,-0.025390625,0.013671875,-0.01171875,0.0,0.0,0.0
63197486,50343,0,1.005859375,-0.029296875,0.013671875,-0.015625,0.0,0.0,0.0
63198737,50344,0,0.998046875,-0.025390625,0.021484375,-0.00390625,0.0,0.0,0.0
63199987,50345,0,0.994140625,-0.02734375,0.021484375,-0.005859375,0.0,0.0,0.0
63201238,50346,0,1.00390625,-0.02734375,0.021484375,-0.005859375,0.0,0.0,0.0
63202489,50347,0,0.99609375,-0.025390625,0.01953125,-0.005859375,0.0,0.0,0.0
63203740,50348,0,1.001953125,-0.029296875,0.009765625,-0.01953125,0.0,0.0,0.0
63204991,50349,0,1.001953125,-0.0234375,0.015625,-0.0078125,0.0,0.0,0.0
63206241,50350,0,1.0,-0.0234375,0.01953125,-0.00390625,0.0,0.0,0.0
63207492,50351,0,1.005859375,-0.02734375,0.013671875,-0.013671875,0.0,0.0,0.0
63208744,50352,0,1.001953125,-0.021484375,0.015625,-0.005859375,0.0,0.0,0.0
63209994,50353,0,1.00390625,-0.025390625,0.017578125,-0.0078125,0.0,0.0,0.0
63211245,50354,0,1.005859375,-0.02734375,0.017578125,-0.009765625,0.0,0.0,0.0
63212496,50355,0,1.005859375,-0.0234375,0.021484375,-0.001953125,0.0,0.0,0.0
63213747,50356,0,1.0,-0.025390625,0.0234375,-0.001953125,0.0,0.0,0.0
63214997,50357,0,1.001953125,-0.025390625,0.009765625,-0.015625,0.0,0.0,0.0
63216248,50358,0,1.00390625,-0.0234375,0.017578125,-0.005859375,0.0,0.0,0.0
63217499,50359,0,1.005859375,-0.021484375,0.01171875,-0.009765625,0.0,0.0,0.0
63218751,50360,0,1.00390625,-0.025390625,0.015625,-0.009765625,0.0,0.0,0.0
63220002,50361,0,1.005859375,-0.02734375,0.015625,-0.01171875,0.0,0.0,0.0
63221253,50362,0,1.005859375,-0.037109375,0.015625,-0.021484375,0.0,0.0,0.0
63222503,50363,0,0.994140625,-0.025390625,0.015625,-0.009765625,0.0,0.0,0.0
63223755,50364,0,1.01171875,-0.03125,0.013671875,-0.017578125,0.0,0.0,0.0
63225005,50365,0,1.0078125,-0.021484375,0.013671875,-0.0078125,0.0,0.0,0.0
63226256,50366,0,1.009765625,-0.029296875,0.013671875,-0.015625,0.0,0.0,0.0
63227506,50367,0,0.99609375,-0.0234375,0.021484375,-0.001953125,0.0,0.0,0.0
63228757,50368,0,0.99609375,-0.01953125,0.017578125,-0.001953125,0.0,0.0,0.0
63230008,50369,0,1.005859375,-0.025390625,0.015625,-0.009765625,0.0,0.0,0.0
63231258,50370,0,1.005859375,-0.02734375,0.01953125,-0.0078125,0.0,0.0,0.0
63232508,50371,0,1.0,-0.029296875,0.013671875,-0.015625,0.0,0.0,0.0
63233759,50372,0,0.99609375,-0.029296875,0.01171875,-0.017578125,0.0,0.0,0.0
63235009,50373,0,1.001953125,-0.029296875,0.01171875,-0.017578125,0.0,0.0,0.0
63236259,50374,0,1.0,-0.029296875,0.015625,-0.013671875,0.0,0.0,0.0
63237510,50375,0,1.0,-0.03125,0.009765625,-0.021484375,0.0,0.0,0.0
63238762,50376,0,1.009765625,-0.02734375,0.009765625,-0.017578125,0.0,0.0,0.0
63240012,50377,0,0.998046875,-0.029296875,0.017578125,-0.01171875,0.0,0.0,0.0
63241271,50378,0,1.005859375,-0.02734375,0.015625,-0.01171875,0.0,0.0,0.0
63242521,50379,0,1.00390625,-0.029296875,0.013671875,-0.015625,0.0,0.0,0.0
63243773,50380,0,1.0,-0.02734375,0.015625,-0.01171875,0.0,0.0,0.0
63245023,50381,0,1.0,-0.025390625,0.013671875,-0.01171875,0.0,0.0,0.0
63246274,50382,0,1.0078125,-0.02734375,0.015625,-0.01171875,0.0,0.0,0.0
63247525,50383,0,1.00390625,-0.021484375,0.01953125,-0.001953125,0.0,0.0,0.0
63248776,50384,0,1.013671875,-0.029296875,0.005859375,-0.0234375,0.0,0.0,0.0
63250026,50385,0,1.009765625,-0.0234375,0.01171875,-0.01171875,0.0,0.0,0.0
63251276,50386,0,1.001953125,-0.025390625,0.01171875,-0.013671875,0.0,0.0,0.0
63252527,50387,0,0.99609375,-0.02734375,0.017578125,-0.009765625,0.0,0.0,0.0
63253778,50388,0,1.0078125,-0.03125,0.013671875,-0.017578125,0.0,0.0,0.0
63255029,50389,0,1.015625,-0.025390625,0.01953125,-0.005859375,0.0,0.0,0.0
63256280,50390,0,1.0,-0.02734375,0.01953125,-0.0078125,0.0,0.0,0.0
63257531,50391,0,1.005859375,-0.02734375,0.01171875,-0.015625,0.0,0.0,0.0
63258783,50392,0,1.00390625,-0.02734375,0.013671875,-0.013671875,0.0,0.0,0.0
63260034,50393,0,0.99609375,-0.02734375,0.017578125,-0.009765625,0.0,0.0,0.0
63261286,50394,0,1.0,-0.029296875,0.015625,-0.013671875,0.0,0.0,0.0
63262537,50395,0,1.00390625,-0.0234375,0.017578125,-0.005859375,0.0,0.0,0.0
63263789,50396,0,1.0,-0.029296875,0.01953125,-0.009765625,0.0,0.0,0.0
63265039,50397,0,1.005859375,-0.025390625,0.021484375,-0.00390625,0.0,0.0,0.0
63266289,50398,0,1.001953125,-0.02734375,0.015625,-0.01171875,0.0,0.0,0.0
63267541,50399,0,1.005859375,-0.02734375,0.017578125,-0.009765625,0.0,0.0,0.0
63268792,50400,0,1.001953125,-0.02734375,0.015625,-0.01171875,0.0,0.0,0.0
63270044,50401,0,1.005859375,-0.02734375,0.015625,-0.01171875,0.0,0.0,0.0
63271294,50402,0,1.0078125,-0.025390625,0.0078125,-0.017578125,0.0,0.0,0.0
63272544,50403,0,1.00390625,-0.025390625,0.015625,-0.009765625,0.0,0.0,0.0
63273795,50404,0,0.998046875,-0.025390625,0.015625,-0.009765625,0.0,0.0,0.0
63275045,50405,0,1.0078125,-0.0234375,0.017578125,-0.005859375,0.0,0.0,0.0
63276295,50406,0,1.0,-0.02734375,0.013671875,-0.013671875,0.0,0.0,0.0
63277546,50407,0,1.00390625,-0.0234375,0.001953125,-0.021484375,0.0,0.0,0.0
63278797,50408,0,1.001953125,-0.03125,0.01953125,-0.01171875,0.0,0.0,0.0
63280048,50409,0,0.9921875,-0.01953125,0.021484375,0.001953125,0.0,0.0,0.0
63281299,50410,0,1.0078125,-0.0234375,0.01953125,-0.00390625,0.0,0.0,0.0
63282550,50411,0,1.005859375,-0.025390625,0.0234375,-0.001953125,0.0,0.0,0.0
63283800,50412,0,1.0078125,-0.02734375,0.017578125,-0.009765625,0.0,0.0,0.0
63285052,50413,0,1.0078125,-0.0234375,0.01953125,-0.00390625,0.0,0.0,0.0
63286303,50414,0,1.0078125,-0.025390625,0.017578125,-0.0078125,0.0,0.0,0.0
63287554,50415,0,1.001953125,-0.02734375,0.013671875,-0.013671875,0.0,0.0,0.0
63288805,50416,0,1.0078125,-0.029296875,0.01171875,-0.017578125,0.0,0.0,0.0
63290057,50417,0,1.005859375,-0.021484375,0.015625,-0.005859375,0.0,0.0,0.0
63291308,50418,0,1.0078125,-0.025390625,0.015625,-0.009765625,0.0,0.0,0.0
63292560,50419,0,1.0078125,-0.025390625,0.015625,-0.009765625,0.0,0.0,0.0
63293811,50420,0,0.998046875,-0.02734375,0.021484375,-0.005859375,0.0,0.0,0.0
63295063,50421,0,1.00390625,-0.02734375,0.01171875,-0.015625,0.0,0.0,0.0
63296314,50422,0,1.005859375,-0.025390625,0.015625,-0.009765625,0.0,0.0,0.0
63297565,50423,0,1.00390625,-0.02734375,0.01953125,-0.0078125,0.0,0.0,0.0
63298816,50424,0,1.001953125,-0.02734375,0.021484375,-0.005859375,0.0,0.0,0.0
63300066,50425,0,1.001953125,-0.025390625,0.017578125,-0.0078125,0.0,0.0,0.0
63301318,50426,0,1.001953125,-0.029296875,0.017578125,-0.01171875,0.0,0.0,0.0
63302569,50427,0,1.0078125,-0.03125,0.009765625,-0.021484375,0.0,0.0,0.0
63303819,50428,0,0.994140625,-0.02734375,0.015625,-0.01171875,0.0,0.0,0.0
63305070,50429,0,1.017578125,-0.02734375,0.013671875,-0.013671875,0.0,0.0,0.0
63306321,50430,0,1.0,-0.02734375,0.01171875,-0.015625,0.0,0.0,0.0
63307572,50431,0,1.001953125,-0.025390625,0.013671875,-0.01171875,0.0,0.0,0.0
63308823,50432,0,1.0,-0.025390625,0.021484375,-0.00390625,0.0,0.0,0.0
63310074,50433,0,1.001953125,-0.029296875,0.01953125,-0.009765625,0.0,0.0,0.0
63311325,50434,0,1.001953125,-0.025390625,0.013671875,-0.01171875,0.0,0.0,0.0
63312575,50435,0,1.0078125,-0.029296875,0.013671875,-0.015625,0.0,0.0,0.0
63313825,50436,0,1.001953125,-0.0234375,0.01171875,-0.01171875,0.0,0.0,0.0
63315076,50437,0,1.005859375,-0.025390625,0.0078125,-0.017578125,0.0,0.0,0.0
63316326,50438,0,1.00390625,-0.0234375,0.013671875,-0.009765625,0.0,0.0,0.0
63317577,50439,0,1.005859375,-0.033203125,0.017578125,-0.015625,0.0,0.0,0.0
63318828,50440,0,1.005859375,-0.029296875,0.01953125,-0.009765625,0.0,0.0,0.0
63320078,50441,0,1.0,-0.025390625,0.0078125,-0.017578125,0.0,0.0,0.0
63321329,50442,0,1.001953125,-0.029296875,0.0078125,-0.021484375,0.0,0.0,0.0
63322581,50443,0,1.005859375,-0.029296875,0.017578125,-0.01171875,0.0,0.0,0.0
63323833,50444,0,1.00390625,-0.0234375,0.01953125,-0.00390625,0.0,0.0,0.0
63325083,50445,0,1.00390625,-0.025390625,0.017578125,-0.0078125,0.0,0.0,0.0
63326333,50446,0,1.0078125,-0.0234375,0.017578125,-0.005859375,0.0,0.0,0.0
63327584,50447,0,1.0,-0.033203125,0.013671875,-0.01953125,0.0,0.0,0.0
63328835,50448,0,1.005859375,-0.01953125,0.01953125,0.0,0.0,0.0,0.0
63330085,50449,0,1.01953125,-0.02734375,0.015625,-0.01171875,0.0,0.0,0.0
63331336,50450,0,1.001953125,-0.02734375,0.021484375,-0.005859375,0.0,0.0,0.0
63332587,50451,0,1.001953125,-0.0234375,0.0234375,0.0,0.0,0.0,0.0
63333838,50452,0,1.0,-0.02734375,0.01953125,-0.0078125,0.0,0.0,0.0
63335090,50453,0,0.994140625,-0.03125,0.017578125,-0.013671875,0.0,0.0,0.0
63336341,50454,0,1.001953125,-0.02734375,0.01171875,-0.015625,0.0,0.0,0.0
63337592,50455,0,1.001953125,-0.0234375,0.0078125,-0.015625,0.0,0.0,0.0
63338844,50456,0,1.005859375,-0.02734375,0.017578125,-0.009765625,0.0,0.0,0.0
63340095,50457,0,1.005859375,-0.0234375,0.013671875,-0.009765625,0.0,0.0,0.0
63341346,50458,0,1.0,-0.02734375,0.017578125,-0.009765625,0.0,0.0,0.0
63342597,50459,0,1.00390625,-0.025390625,0.01171875,-0.013671875,0.0,0.0,0.0
63343849,50460,0,1.001953125,-0.025390625,0.015625,-0.009765625,0.0,0.0,0.0
63345099,50461,0,1.001953125,-0.0234375,0.017578125,-0.005859375,0.0,0.0,0.0
63346351,50462,0,1.005859375,-0.0234375,0.017578125,-0.005859375,0.0,0.0,0.0
63347602,50463,0,1.00390625,-0.0234375,0.01171875,-0.01171875,0.0,0.0,0.0
63348854,50464,0,1.009765625,-0.02734375,0.013671875,-0.013671875,0.0,0.0,0.0
63350104,50465,0,1.001953125,-0.0234375,0.015625,-0.0078125,0.0,0.0,0.0
63351354,50466,0,1.0,-0.025390625,0.01953125,-0.005859375,0.0,0.0,0.0
63352605,50467,0,1.0078125,-0.029296875,0.015625,-0.013671875,0.0,0.0,0.0
63353855,50468,0,1.0078125,-0.025390625,0.0078125,-0.017578125,0.0,0.0,0.0
63355107,50469,0,1.005859375,-0.029296875,0.021484375,-0.0078125,0.0,0.0,0.0
63356358,50470,0,1.0,-0.029296875,0.013671875,-0.015625,0.0,0.0,0.0
63357609,50471,0,1.0,-0.025390625,0.01171875,-0.013671875,0.0,0.0,0.0
63358859,50472,0,0.998046875,-0.02734375,0.009765625,-0.017578125,0.0,0.0,0.0
63360111,50473,0,0.994140625,-0.025390625,0.01953125,-0.005859375,0.0,0.0,0.0
63361362,50474,0,1.005859375,-0.029296875,0.017578125,-0.01171875,0.0,0.0,0.0
63362613,50475,0,1.005859375,-0.029296875,0.009765625,-0.01953125,0.0,0.0,0.0
63363865,50476,0,1.0,-0.025390625,0.021484375,-0.00390625,0.0,0.0,0.0
63365115,50477,0,0.998046875,-0.02734375,0.017578125,-0.009765625,0.0,0.0,0.0
63366365,50478,0,1.0,-0.0234375,0.009765625,-0.013671875,0.0,0.0,0.0
63367617,50479,0,1.005859375,-0.02734375,0.017578125,-0.009765625,0.0,0.0,0.0
63368867,50480,0,1.00390625,-0.029296875,0.017578125,-0.01171875,0.0,0.0,0.0
63370118,50481,0,1.001953125,-0.025390625,0.009765625,-0.015625,0.0,0.0,0.0
63371369,50482,0,0.998046875,-0.03125,0.015625,-0.015625,0.0,0.0,0.0
63372620,50483,0,1.00390625,-0.02734375,0.017578125,-0.009765625,0.0,0.0,0.0
63373871,50484,0,1.005859375,-0.02734375,0.017578125,-0.009765625,0.0,0.0,0.0
63375123,50485,0,0.998046875,-0.025390625,0.017578125,-0.0078125,0.0,0.0,0.0
63376374,50486,0,1.0078125,-0.025390625,0.015625,-0.009765625,0.0,0.0,0.0
63377624,50487,0,1.00390625,-0.025390625,0.017578125,-0.0078125,0.0,0.0,0.0
63378875,50488,0,1.001953125,-0.025390625,0.01953125,-0.005859375,0.0,0.0,0.0
63380125,50489,0,1.005859375,-0.029296875,0.015625,-0.013671875,0.0,0.0,0.0
63381375,50490,0,1.005859375,-0.021484375,0.01171875,-0.009765625,0.0,0.0,0.0
63382626,50491,0,0.99609375,-0.029296875,0.021484375,-0.0078125,0.0,0.0,0.0
63383877,50492,0,1.001953125,-0.029296875,0.0078125,-0.021484375,0.0,0.0,0.0
63385129,50493,0,1.00390625,-0.025390625,0.013671875,-0.01171875,0.0,0.0,0.0
63386380,50494,0,1.005859375,-0.025390625,0.013671875,-0.01171875,0.0,0.0,0.0
63387630,50495,0,1.009765625,-0.02734375,0.015625,-0.01171875,0.0,0.0,0.0
63388881,50496,0,1.0078125,-0.03125,0.01171875,-0.01953125,0.0,0.0,0.0
63390133,50497,0,1.00390625,-0.02734375,0.015625,-0.01171875,0.0,0.0,0.0
63391384,50498,0,1.001953125,-0.029296875,0.017578125,-0.01171875,0.0,0.0,0.0
63392634,50499,0,1.005859375,-0.029296875,0.01171875,-0.017578125,0.0,0.0,0.0
63393886,50500,0,1.009765625,-0.0234375,0.015625,-0.0078125,0.0,0.0,0.0
63395136,50501,0,1.005859375,-0.02734375,0.013671875,-0.013671875,0.0,0.0,0.0
63396386,50502,0,1.00390625,-0.029296875,0.017578125,-0.01171875,0.0,0.0,0.0
63397638,50503,0,1.005859375,-0.025390625,0.017578125,-0.0078125,0.0,0.0,0.0
63398888,50504,0,1.001953125,-0.02734375,0.021484375,-0.005859375,0.0,0.0,0.0
63400139,50505,0,1.00390625,-0.02734375,0.013671875,-0.013671875,0.0,0.0,0.0
63401391,50506,0,1.00390625,-0.0234375,0.013671875,-0.009765625,0.0,0.0,0.0
63402641,50507,0,1.0,-0.02734375,0.013671875,-0.013671875,0.0,0.0,0.0
63403892,50508,0,1.00390625,-0.029296875,0.013671875,-0.015625,0.0,0.0,0.0
63405142,50509,0,1.001953125,-0.0234375,0.017578125,-0.005859375,0.0,0.0,0.0
63406393,50510,0,1.00390625,-0.029296875,0.015625,-0.013671875,0.0,0.0,0.0
63407645,50511,0,1.0078125,-0.0234375,0.017578125,-0.005859375,0.0,0.0,0.0
63408895,50512,0,1.0078125,-0.02734375,0.013671875,-0.013671875,0.0,0.0,0.0
63410147,50513,0,1.001953125,-0.02734375,0.017578125,-0.009765625,0.0,0.0,0.0
63411397,50514,0,0.998046875,-0.021484375,0.021484375,0.0,0.0,0.0,0.0
63412649,50515,0,0.994140625,-0.0234375,0.017578125,-0.005859375,0.0,0.0,0.0
63413899,50516,0,1.017578125,-0.03125,0.01171875,-0.01953125,0.0,0.0,0.0
63415149,50517,0,0.998046875,-0.02734375,0.017578125,-0.009765625,0.0,0.0,0.0
63416399,50518,0,1.00390625,-0.02734375,0.01171875,-0.015625,0.0,0.0,0.0
63417650,50519,0,1.001953125,-0.02734375,0.017578125,-0.009765625,0.0,0.0,0.0
63418902,50520,0,1.005859375,-0.021484375,0.0078125,-0.013671875,0.0,0.0,0.0
63420153,50521,0,1.0078125,-0.02734375,0.015625,-0.01171875,0.0,0.0,0.0
63421404,50522,0,1.00390625,-0.0234375,0.013671875,-0.009765625,0.0,0.0,0.0
63422654,50523,0,1.0078125,-0.021484375,0.017578125,-0.00390625,0.0,0.0,0.0
63423904,50524,0,1.0,-0.021484375,0.01171875,-0.009765625,0.0,0.0,0.0
63425155,50525,0,1.0,-0.02734375,0.021484375,-0.005859375,0.0,0.0,0.0
63426407,50526,0,1.0,-0.033203125,0.01953125,-0.013671875,0.0,0.0,0.0
63427657,50527,0,0.994140625,-0.02734375,0.01171875,-0.015625,0.0,0.0,0.0
63428909,50528,0,1.005859375,-0.025390625,0.013671875,-0.01171875,0.0,0.0,0.0
63430159,50529,0,1.00390625,-0.02734375,0.01953125,-0.0078125,0.0,0.0,0.0
63431409,50530,0,1.005859375,-0.02734375,0.015625,-0.01171875,0.0,0.0,0.0
63432661,50531,0,1.01171875,-0.021484375,0.0234375,0.001953125,0.0,0.0,0.0
63433911,50532,0,0.998046875,-0.0234375,0.015625,-0.0078125,0.0,0.0,0.0
63435161,50533,0,0.998046875,-0.0234375,0.01953125,-0.00390625,0.0,0.0,0.0
63436411,50534,0,0.998046875,-0.02734375,0.01953125,-0.0078125,0.0,0.0,0.0
63437663,50535,0,1.009765625,-0.0234375,0.01171875,-0.01171875,0.0,0.0,0.0
63438913,50536,0,0.994140625,-0.0234375,0.017578125,-0.005859375,0.0,0.0,0.0
63440164,50537,0,1.0078125,-0.033203125,0.01953125,-0.013671875,0.0,0.0,0.0
63441415,50538,0,0.998046875,-0.03125,0.015625,-0.015625,0.0,0.0,0.0
63442666,50539,0,1.0078125,-0.025390625,0.009765625,-0.015625,0.0,0.0,0.0
63443916,50540,0,1.001953125,-0.025390625,0.015625,-0.009765625,0.0,0.0,0.0
63445167,50541,0,1.013671875,-0.025390625,0.017578125,-0.0078125,0.0,0.0,0.0
63446417,50542,0,0.998046875,-0.029296875,0.01953125,-0.009765625,0.0,0.0,0.0
63447668,50543,0,1.0,-0.02734375,0.01171875,-0.015625,0.0,0.0,0.0
63448920,50544,0,1.0,-0.03125,0.015625,-0.015625,0.0,0.0,0.0
63450171,50545,0,1.0078125,-0.0234375,0.015625,-0.0078125,0.0,0.0,0.0
63451421,50546,0,1.00390625,-0.0234375,0.013671875,-0.009765625,0.0,0.0,0.0
63452672,50547,0,1.0078125,-0.03125,0.017578125,-0.013671875,0.0,0.0,0.0
63453924,50548,0,0.99609375,-0.02734375,0.015625,-0.01171875,0.0,0.0,0.0
63455174,50549,0,1.001953125,-0.025390625,0.01171875,-0.013671875,0.0,0.0,0.0
63456425,50550,0,1.001953125,-0.025390625,0.01953125,-0.005859375,0.0,0.0,0.0
63457677,50551,0,1.00390625,-0.025390625,0.0078125,-0.017578125,0.0,0.0,0.0
63458927,50552,0,1.00390625,-0.0234375,0.01171875,-0.01171875,0.0,0.0,0.0
63460177,50553,0,1.005859375,-0.03125,0.021484375,-0.009765625,0.0,0.0,0.0
63461429,50554,0,1.001953125,-0.029296875,0.017578125,-0.01171875,0.0,0.0,0.0
63462679,50555,0,1.00390625,-0.0234375,0.017578125,-0.005859375,0.0,0.0,0.0
63463931,50556,0,0.998046875,-0.021484375,0.01953125,-0.001953125,0.0,0.0,0.0
63465181,50557,0,1.017578125,-0.02734375,0.017578125,-0.009765625,0.0,0.0,0.0
63466431,50558,0,0.990234375,-0.0234375,0.01171875,-0.01171875,0.0,0.0,0.0
63467683,50559,0,1.015625,-0.033203125,0.0234375,-0.009765625,0.0,0.0,0.0
63468933,50560,0,1.0,-0.029296875,0.017578125,-0.01171875,0.0,0.0,0.0
63470183,50561,0,1.005859375,-0.021484375,0.013671875,-0.0078125,0.0,0.0,0.0
63471434,50562,0,1.009765625,-0.02734375,0.015625,-0.01171875,0.0,0.0,0.0
63472685,50563,0,1.00390625,-0.025390625,0.015625,-0.009765625,0.0,0.0,0.0
63473936,50564,0,1.001953125,-0.025390625,0.017578125,-0.0078125,0.0,0.0,0.0
63475186,50565,0,1.0,-0.029296875,0.01171875,-0.017578125,0.0,0.0,0.0
63476437,50566,0,1.005859375,-0.0234375,0.017578125,-0.005859375,0.0,0.0,0.0
63477687,50567,0,1.00390625,-0.03125,0.01171875,-0.01953125,0.0,0.0,0.0
63478937,50568,0,1.0,-0.029296875,0.017578125,-0.01171875,0.0,0.0,0.0
63480188,50569,0,1.0,-0.025390625,0.015625,-0.009765625,0.0,0.0,0.0
63481440,50570,0,1.005859375,-0.025390625,0.0078125,-0.017578125,0.0,0.0,0.0
63482690,50571,0,0.998046875,-0.025390625,0.009765625,-0.015625,0.0,0.0,0.0
63483942,50572,0,1.001953125,-0.02734375,0.01953125,-0.0078125,0.0,0.0,0.0
63485193,50573,0,1.001953125,-0.025390625,0.017578125,-0.0078125,0.0,0.0,0.0
63486445,50574,0,1.00390625,-0.029296875,0.013671875,-0.015625,0.0,0.0,0.0
63487695,50575,0,1.0,-0.021484375,0.021484375,0.0,0.0,0.0,0.0
63488947,50576,0,1.0078125,-0.029296875,0.017578125,-0.01171875,0.0,0.0,0.0
63490198,50577,0,0.998046875,-0.025390625,0.01953125,-0.005859375,0.0,0.0,0.0
63491450,50578,0,1.005859375,-0.025390625,0.015625,-0.009765625,0.0,0.0,0.0
63492700,50579,0,1.001953125,-0.02734375,0.021484375,-0.005859375,0.0,0.0,0.0
63493952,50580,0,1.017578125,-0.025390625,0.0234375,-0.001953125,0.0,0.0,0.0
63495203,50581,0,1.0,-0.03125,0.02734375,-0.00390625,0.0,0.0,0.0
63496454,50582,0,0.998046875,-0.02734375,0.01953125,-0.0078125,0.0,0.0,0.0
63497705,50583,0,1.0,-0.02734375,0.021484375,-0.005859375,0.0,0.0,0.0
63498957,50584,0,1.0,-0.025390625,0.013671875,-0.01171875,0.0,0.0,0.0
63500207,50585,0,1.00390625,-0.025390625,0.017578125,-0.0078125,0.0,0.0,0.0
63501459,50586,0,1.0078125,-0.0234375,0.013671875,-0.009765625,0.0,0.0,0.0
63502709,50587,0,1.005859375,-0.0234375,0.017578125,-0.005859375,0.0,0.0,0.0
63503959,50588,0,1.001953125,-0.02734375,0.013671875,-0.013671875,0.0,0.0,0.0
63505209,50589,0,1.00390625,-0.029296875,0.01171875,-0.017578125,0.0,0.0,0.0
63506459,50590,0,1.0078125,-0.025390625,0.01953125,-0.005859375,0.0,0.0,0.0
63507711,50591,0,1.0,-0.025390625,0.017578125,-0.0078125,0.0,0.0,0.0
63508961,50592,0,1.00390625,-0.025390625,0.017578125,-0.0078125,0.0,0.0,0.0
63510213,50593,0,1.005859375,-0.03125,0.021484375,-0.009765625,0.0,0.0,0.0
63511464,50594,0,1.0078125,-0.025390625,0.013671875,-0.01171875,0.0,0.0,0.0
63512715,50595,0,1.0,-0.025390625,0.017578125,-0.0078125,0.0,0.0,0.0
63513966,50596,0,1.001953125,-0.025390625,0.017578125,-0.0078125,0.0,0.0,0.0
63515216,50597,0,1.005859375,-0.021484375,0.025390625,0.00390625,0.0,0.0,0.0
63516467,50598,0,1.001953125,-0.02734375,0.01953125,-0.0078125,0.0,0.0,0.0
63517718,50599,0,1.00390625,-0.025390625,0.01953125,-0.005859375,0.0,0.0,0.0
63518968,50600,0,1.005859375,-0.02734375,0.009765625,-0.017578125,0.0,0.0,0.0
63520219,50601,0,1.00390625,-0.025390625,0.005859375,-0.01953125,0.0,0.0,0.0
63521470,50602,0,1.01953125,-0.02734375,0.01953125,-0.0078125,0.0,0.0,0.0
63522721,50603,0,1.00390625,-0.02734375,0.0078125,-0.01953125,0.0,0.0,0.0
63523971,50604,0,1.005859375,-0.021484375,0.013671875,-0.0078125,0.0,0.0,0.0
63525223,50605,0,1.0,-0.029296875,0.017578125,-0.01171875,0.0,0.0,0.0
63526473,50606,0,0.998046875,-0.02734375,0.01171875,-0.015625,0.0,0.0,0.0
63527723,50607,0,1.00390625,-0.02734375,0.01953125,-0.0078125,0.0,0.0,0.0
63528975,50608,0,1.001953125,-0.025390625,0.013671875,-0.01171875,0.0,0.0,0.0
63530226,50609,0,1.00390625,-0.029296875,0.0078125,-0.021484375,0.0,0.0,0.0
63531476,50610,0,1.001953125,-0.025390625,0.009765625,-0.015625,0.0,0.0,0.0
63532728,50611,0,1.005859375,-0.029296875,0.01171875,-0.017578125,0.0,0.0,0.0
63533979,50612,0,1.001953125,-0.02734375,0.017578125,-0.009765625,0.0,0.0,0.0
63535229,50613,0,1.0,-0.0234375,0.017578125,-0.005859375,0.0,0.0,0.0
63536481,50614,0,1.001953125,-0.0234375,0.01953125,-0.00390625,0.0,0.0,0.0
63537731,50615,0,0.998046875,-0.021484375,0.009765625,-0.01171875,0.0,0.0,0.0
63538981,50616,0,0.998046875,-0.03125,0.01953125,-0.01171875,0.0,0.0,0.0
63540232,50617,0,1.0078125,-0.02734375,0.017578125,-0.009765625,0.0,0.0,0.0
63541483,50618,0,1.005859375,-0.0234375,0.01171875,-0.01171875,0.0,0.0,0.0
63542734,50619,0,1.005859375,-0.025390625,0.01171875,-0.013671875,0.0,0.0,0.0
63543986,50620,0,1.0,-0.03125,0.0,-0.03125,0.0,0.0,0.0
63545236,50621,0,1.0078125,-0.021484375,0.01953125,-0.001953125,0.0,0.0,0.0
63546486,50622,0,1.0,-0.025390625,0.01953125,-0.005859375,0.0,0.0,0.0
63547737,50623,0,0.99609375,-0.033203125,0.009765625,-0.0234375,0.0,0.0,0.0
63548987,50624,0,1.009765625,-0.029296875,0.009765625,-0.01953125,0.0,0.0,0.0
63550238,50625,0,1.0,-0.029296875,0.025390625,-0.00390625,0.0,0.0,0.0
63551489,50626,0,1.001953125,-0.025390625,0.017578125,-0.0078125,0.0,0.0,0.0
63552740,50627,0,1.005859375,-0.0234375,0.015625,-0.0078125,0.0,0.0,0.0
63553991,50628,0,0.99609375,-0.02734375,0.021484375,-0.005859375,0.0,0.0,0.0
63555241,50629,0,1.0,-0.029296875,0.01953125,-0.009765625,0.0,0.0,0.0
63556492,50630,0,1.001953125,-0.02734375,0.01171875,-0.015625,0.0,0.0,0.0
63557744,50631,0,1.005859375,-0.025390625,0.015625,-0.009765625,0.0,0.0,0.0
63558994,50632,0,1.009765625,-0.02734375,0.017578125,-0.009765625,0.0,0.0,0.0
63560245,50633,0,1.009765625,-0.025390625,0.013671875,-0.01171875,0.0,0.0,0.0
63561496,50634,0,1.005859375,-0.02734375,0.013671875,-0.013671875,0.0,0.0,0.0
63562747,50635,0,1.0,-0.02734375,0.01953125,-0.0078125,0.0,0.0,0.0
63563998,50636,0,1.001953125,-0.0234375,0.01953125,-0.00390625,0.0,0.0,0.0
63565249,50637,0,1.00390625,-0.025390625,0.013671875,-0.01171875,0.0,0.0,0.0
63566499,50638,0,1.0,-0.029296875,0.017578125,-0.01171875,0.0,0.0,0.0
63567751,50639,0,1.00390625,-0.02734375,0.015625,-0.01171875,0.0,0.0,0.0
63569002,50640,0,1.005859375,-0.0234375,0.015625,-0.0078125,0.0,0.0,0.0
63570253,50641,0,1.009765625,-0.015625,0.01953125,0.00390625,0.0,0.0,0.0
63571503,50642,0,0.998046875,-0.029296875,0.015625,-0.013671875,0.0,0.0,0.0
63572755,50643,0,1.0078125,-0.021484375,0.013671875,-0.0078125,0.0,0.0,0.0
63574005,50644,0,1.00390625,-0.01953125,0.015625,-0.00390625,0.0,0.0,0.0
63575256,50645,0,1.015625,-0.03125,0.01953125,-0.01171875,0.0,0.0,0.0
63576506,50646,0,1.00390625,-0.0234375,0.0078125,-0.015625,0.0,0.0,0.0
63577757,50647,0,1.0078125,-0.029296875,0.013671875,-0.015625,0.0,0.0,0.0
63579008,50648,0,1.005859375,-0.0234375,0.015625,-0.0078125,0.0,0.0,0.0
63580258,50649,0,1.00390625,-0.0234375,0.013671875,-0.009765625,0.0,0.0,0.0
63581508,50650,0,1.0078125,-0.029296875,0.017578125,-0.01171875,0.0,0.0,0.0
63582759,50651,0,1.005859375,-0.03125,0.013671875,-0.017578125,0.0,0.0,0.0
63584009,50652,0,1.00390625,-0.025390625,0.015625,-0.009765625,0.0,0.0,0.0
63585259,50653,0,1.001953125,-0.025390625,0.017578125,-0.0078125,0.0,0.0,0.0
63586510,50654,0,1.009765625,-0.02734375,0.015625,-0.01171875,0.0,0.0,0.0
63587762,50655,0,1.005859375,-0.025390625,0.015625,-0.009765625,0.0,0.0,0.0
63589012,50656,0,0.998046875,-0.029296875,0.01953125,-0.009765625,0.0,0.0,0.0
63590271,50657,0,1.005859375,-0.0234375,0.01953125,-0.00390625,0.0,0.0,0.0
63591521,50658,0,1.0,-0.025390625,0.015625,-0.009765625,0.0,0.0,0.0
63592773,50659,0,1.00390625,-0.02734375,0.01171875,-0.015625,0.0,0.0,0.0
63594023,50660,0,1.005859375,-0.029296875,0.017578125,-0.01171875,0.0,0.0,0.0
63595274,50661,0,1.00390625,-0.02734375,0.013671875,-0.013671875,0.0,0.0,0.0
63596525,50662,0,1.0078125,-0.0234375,0.01171875,-0.01171875,0.0,0.0,0.0
63597776,50663,0,1.009765625,-0.025390625,0.01171875,-0.013671875,0.0,0.0,0.0
63599026,50664,0,1.001953125,-0.02734375,0.015625,-0.01171875,0.0,0.0,0.0
63600276,50665,0,1.0,-0.029296875,0.017578125,-0.01171875,0.0,0.0,0.0
63601527,50666,0,1.0,-0.025390625,0.01171875,-0.013671875,0.0,0.0,0.0
63602778,50667,0,1.005859375,-0.025390625,0.015625,-0.009765625,0.0,0.0,0.0
63604029,50668,0,1.0078125,-0.0234375,0.01953125,-0.00390625,0.0,0.0,0.0
63605280,50669,0,1.001953125,-0.0234375,0.01171875,-0.01171875,0.0,0.0,0.0
63606531,50670,0,1.005859375,-0.0234375,0.013671875,-0.009765625,0.0,0.0,0.0
63607783,50671,0,1.0,-0.02734375,0.01953125,-0.0078125,0.0,0.0,0.0
63609034,50672,0,1.0,-0.025390625,0.01171875,-0.013671875,0.0,0.0,0.0
63610286,50673,0,1.001953125,-0.029296875,0.01171875,-0.017578125,0.0,0.0,0.0
63611537,50674,0,1.001953125,-0.033203125,0.01171875,-0.021484375,0.0,0.0,0.0
63612789,50675,0,1.00390625,-0.025390625,0.009765625,-0.015625,0.0,0.0,0.0
63614039,50676,0,1.009765625,-0.025390625,0.017578125,-0.0078125,0.0,0.0,0.0
63615289,50677,0,1.005859375,-0.025390625,0.01171875,-0.013671875,0.0,0.0,0.0
63616541,50678,0,1.00390625,-0.03125,0.015625,-0.015625,0.0,0.0,0.0
63617792,50679,0,1.001953125,-0.0234375,0.015625,-0.0078125,0.0,0.0,0.0
63619044,50680,0,1.00390625,-0.02734375,0.013671875,-0.013671875,0.0,0.0,0.0
63620294,50681,0,1.0,-0.0234375,0.013671875,-0.009765625,0.0,0.0,0.0
63621544,50682,0,1.001953125,-0.0234375,0.017578125,-0.005859375,0.0,0.0,0.0
63622795,50683,0,1.005859375,-0.025390625,0.01953125,-0.005859375,0.0,0.0,0.0
63624045,50684,0,1.0,-0.02734375,0.01171875,-0.015625,0.0,0.0,0.0
63625295,50685,0,1.005859375,-0.02734375,0.013671875,-0.013671875,0.0,0.0,0.0
63626546,50686,0,1.005859375,-0.029296875,0.005859375,-0.0234375,0.0,0.0,0.0
63627797,50687,0,1.001953125,-0.02734375,0.021484375,-0.005859375,0.0,0.0,0.0
63629048,50688,0,1.0078125,-0.029296875,0.013671875,-0.015625,0.0,0.0,0.0
63630299,50689,0,0.998046875,-0.033203125,0.01171875,-0.021484375,0.0,0.0,0.0
63631550,50690,0,1.005859375,-0.021484375,0.017578125,-0.00390625,0.0,0.0,0.0
63632800,50691,0,1.001953125,-0.025390625,0.015625,-0.009765625,0.0,0.0,0.0
63634052,50692,0,1.0078125,-0.0234375,0.009765625,-0.013671875,0.0,0.0,0.0
63635303,50693,0,1.001953125,-0.02734375,0.01953125,-0.0078125,0.0,0.0,0.0
63636554,50694,0,0.998046875,-0.025390625,0.013671875,-0.01171875,0.0,0.0,0.0
63637805,50695,0,1.0,-0.029296875,0.01171875,-0.017578125,0.0,0.0,0.0
63639057,50696,0,1.001953125,-0.02734375,0.015625,-0.01171875,0.0,0.0,0.0
63640308,50697,0,1.0078125,-0.02734375,0.01171875,-0.015625,0.0,0.0,0.0
63641560,50698,0,1.01171875,-0.025390625,0.017578125,-0.0078125,0.0,0.0,0.0
63642811,50699,0,1.001953125,-0.02734375,0.013671875,-0.013671875,0.0,0.0,0.0
63644063,50700,0,1.005859375,-0.0234375,0.01953125,-0.00390625,0.0,0.0,0.0
63645314,50701,0,1.0078125,-0.025390625,0.017578125,-0.0078125,0.0,0.0,0.0
63646565,50702,0,1.001953125,-0.025390625,0.01953125,-0.005859375,0.0,0.0,0.0
63647816,50703,0,1.0078125,-0.025390625,0.009765625,-0.015625,0.0,0.0,0.0
63649066,50704,0,1.0078125,-0.02734375,0.0234375,-0.00390625,0.0,0.0,0.0
63650318,50705,0,1.013671875,-0.0234375,0.01953125,-0.00390625,0.0,0.0,0.0
63651569,50706,0,1.009765625,-0.0234375,0.00390625,-0.01953125,0.0,0.0,0.0
63652819,50707,0,1.009765625,-0.02734375,0.013671875,-0.013671875,0.0,0.0,0.0
63654070,50708,0,1.005859375,-0.021484375,-0.009765625,-0.03125,0.0,0.0,0.0
63655321,50709,0,1.00390625,-0.021484375,0.017578125,-0.00390625,0.0,0.0,0.0
63656572,50710,0,0.990234375,-0.025390625,0.01171875,-0.013671875,0.0,0.0,0.0
