t_us,frame_id,sensor_id,accX,accY,accZ,acc_sum_YZ,magX,magY,magZ
74249161,59178,0,0.998046875,-0.02734375,0.01171875,-0.015625,0.0,0.0,0.0
74250411,59179,0,1.0078125,-0.033203125,0.009765625,-0.0234375,0.0,0.0,0.0
74251663,59180,0,0.998046875,-0.03125,0.0234375,-0.0078125,0.0,0.0,0.0
74252913,59181,0,1.0078125,-0.033203125,0.017578125,-0.015625,0.0,0.0,0.0
74254164,59182,0,0.99609375,-0.037109375,0.021484375,-0.015625,0.0,0.0,0.0
74255415,59183,0,1.00390625,-0.033203125,0.017578125,-0.015625,0.0,0.0,0.0
74256666,59184,0,1.001953125,-0.033203125,0.015625,-0.017578125,0.0,0.0,0.0
74257916,59185,0,1.005859375,-0.03125,0.015625,-0.015625,0.0,0.0,0.0
74259167,59186,0,1.0078125,-0.03125,0.01953125,-0.01171875,0.0,0.0,0.0
74260417,59187,0,1.005859375,-0.029296875,0.015625,-0.013671875,0.0,0.0,0.0
74261668,59188,0,1.0078125,-0.033203125,0.013671875,-0.01953125,0.0,0.0,0.0
74262920,59189,0,1.001953125,-0.029296875,0.01953125,-0.009765625,0.0,0.0,0.0
74264171,59190,0,1.00390625,-0.03515625,0.017578125,-0.017578125,0.0,0.0,0.0
74265421,59191,0,1.005859375,-0.033203125,0.015625,-0.017578125,0.0,0.0,0.0
74266672,59192,0,0.99609375,-0.03125,0.021484375,-0.009765625,0.0,0.0,0.0
74267924,59193,0,1.001953125,-0.029296875,0.017578125,-0.01171875,0.0,0.0,0.0
74269174,59194,0,1.00390625,-0.029296875,0.0078125,-0.021484375,0.0,0.0,0.0
74270425,59195,0,1.0078125,-0.033203125,0.013671875,-0.01953125,0.0,0.0,0.0
74271677,59196,0,1.0078125,-0.03515625,0.015625,-0.01953125,0.0,0.0,0.0
74272927,59197,0,1.01171875,-0.029296875,0.01953125,-0.009765625,0.0,0.0,0.0
74274177,59198,0,1.0078125,-0.025390625,0.017578125,-0.0078125,0.0,0.0,0.0
74275429,59199,0,1.005859375,-0.03125,0.015625,-0.015625,0.0,0.0,0.0
74276679,59200,0,1.01171875,-0.033203125,0.01171875,-0.021484375,0.0,0.0,0.0
74277931,59201,0,1.001953125,-0.03515625,0.025390625,-0.009765625,0.0,0.0,0.0
74279181,59202,0,1.001953125,-0.02734375,0.017578125,-0.009765625,0.0,0.0,0.0
74280431,59203,0,1.0,-0.03125,0.021484375,-0.009765625,0.0,0.0,0.0
74281683,59204,0,1.001953125,-0.03125,0.015625,-0.015625,0.0,0.0,0.0
74282933,59205,0,1.00390625,-0.029296875,0.01171875,-0.017578125,0.0,0.0,0.0
74284183,59206,0,1.001953125,-0.02734375,0.015625,-0.01171875,0.0,0.0,0.0
74285434,59207,0,1.005859375,-0.029296875,0.021484375,-0.0078125,0.0,0.0,0.0
74286685,59208,0,1.005859375,-0.033203125,0.005859375,-0.02734375,0.0,0.0,0.0
74287936,59209,0,1.001953125,-0.03125,0.00390625,-0.02734375,0.0,0.0,0.0
74289186,59210,0,1.00390625,-0.029296875,0.01171875,-0.017578125,0.0,0.0,0.0
74290437,59211,0,1.00390625,-0.03125,0.017578125,-0.013671875,0.0,0.0,0.0
74291687,59212,0,1.0,-0.03515625,0.013671875,-0.021484375,0.0,0.0,0.0
74292937,59213,0,1.005859375,-0.02734375,0.017578125,-0.009765625,0.0,0.0,0.0
74294188,59214,0,1.001953125,-0.02734375,0.01171875,-0.015625,0.0,0.0,0.0
74295440,59215,0,1.00390625,-0.02734375,0.0078125,-0.01953125,0.0,0.0,0.0
74296690,59216,0,1.00390625,-0.02734375,0.013671875,-0.013671875,0.0,0.0,0.0
74297942,59217,0,1.00390625,-0.02734375,0.015625,-0.01171875,0.0,0.0,0.0
74299193,59218,0,1.001953125,-0.029296875,0.013671875,-0.015625,0.0,0.0,0.0
74300445,59219,0,0.998046875,-0.02734375,0.021484375,-0.005859375,0.0,0.0,0.0
74301695,59220,0,1.013671875,-0.037109375,0.01171875,-0.025390625,0.0,0.0,0.0
74302947,59221,0,1.001953125,-0.03515625,0.01171875,-0.0234375,0.0,0.0,0.0
74304198,59222,0,1.009765625,-0.029296875,0.01953125,-0.009765625,0.0,0.0,0.0
74305450,59223,0,1.00390625,-0.029296875,0.017578125,-0.01171875,0.0,0.0,0.0
74306700,59224,0,1.001953125,-0.029296875,0.009765625,-0.01953125,0.0,0.0,0.0
74307952,59225,0,1.01171875,-0.03515625,0.01953125,-0.015625,0.0,0.0,0.0
74309203,59226,0,1.0,-0.02734375,0.021484375,-0.005859375,0.0,0.0,0.0
74310454,59227,0,1.00390625,-0.029296875,0.013671875,-0.015625,0.0,0.0,0.0
74311705,59228,0,1.00390625,-0.03125,0.01953125,-0.01171875,0.0,0.0,0.0
74312957,59229,0,1.001953125,-0.03125,0.015625,-0.015625,0.0,0.0,0.0
74314207,59230,0,1.001953125,-0.029296875,0.017578125,-0.01171875,0.0,0.0,0.0
74315459,59231,0,1.00390625,-0.03125,0.015625,-0.015625,0.0,0.0,0.0
74316709,59232,0,0.998046875,-0.03515625,0.017578125,-0.017578125,0.0,0.0,0.0
74317959,59233,0,1.0,-0.03125,0.017578125,-0.013671875,0.0,0.0,0.0
74319209,59234,0,1.00390625,-0.03125,0.01953125,-0.01171875,0.0,0.0,0.0
74320459,59235,0,1.00390625,-0.03125,0.017578125,-0.013671875,0.0,0.0,0.0
74321711,59236,0,0.998046875,-0.03125,0.017578125,-0.013671875,0.0,0.0,0.0
74322961,59237,0,0.994140625,-0.03515625,0.01953125,-0.015625,0.0,0.0,0.0
74324213,59238,0,1.005859375,-0.02734375,0.015625,-0.01171875,0.0,0.0,0.0
74325464,59239,0,1.0,-0.037109375,0.00390625,-0.033203125,0.0,0.0,0.0
74326715,59240,0,1.005859375,-0.025390625,0.01953125,-0.005859375,0.0,0.0,0.0
74327966,59241,0,1.0078125,-0.029296875,0.015625,-0.013671875,0.0,0.0,0.0
74329216,59242,0,1.009765625,-0.03125,0.013671875,-0.017578125,0.0,0.0,0.0
74330467,59243,0,1.0,-0.033203125,0.013671875,-0.01953125,0.0,0.0,0.0
74331718,59244,0,1.0078125,-0.02734375,0.02734375,0.0,0.0,0.0,0.0
74332968,59245,0,1.00390625,-0.03125,0.01953125,-0.01171875,0.0,0.0,0.0
74334219,59246,0,0.994140625,-0.033203125,0.021484375,-0.01171875,0.0,0.0,0.0
74335470,59247,0,1.0078125,-0.029296875,0.01953125,-0.009765625,0.0,0.0,0.0
74336721,59248,0,1.005859375,-0.02734375,0.01953125,-0.0078125,0.0,0.0,0.0
74337971,59249,0,1.001953125,-0.03515625,0.013671875,-0.021484375,0.0,0.0,0.0
74339223,59250,0,1.005859375,-0.033203125,0.015625,-0.017578125,0.0,0.0,0.0
74340473,59251,0,1.0078125,-0.03125,0.0234375,-0.0078125,0.0,0.0,0.0
74341723,59252,0,1.0078125,-0.03125,0.0234375,-0.0078125,0.0,0.0,0.0
74342975,59253,0,1.001953125,-0.03125,0.013671875,-0.017578125,0.0,0.0,0.0
74344226,59254,0,1.001953125,-0.03125,0.01953125,-0.01171875,0.0,0.0,0.0
74345476,59255,0,1.001953125,-0.029296875,0.017578125,-0.01171875,0.0,0.0,0.0
74346728,59256,0,1.0,-0.025390625,0.017578125,-0.0078125,0.0,0.0,0.0
74347979,59257,0,1.009765625,-0.03125,0.01953125,-0.01171875,0.0,0.0,0.0
74349229,59258,0,1.009765625,-0.03125,0.01171875,-0.01953125,0.0,0.0,0.0
74350481,59259,0,1.0078125,-0.033203125,0.01171875,-0.021484375,0.0,0.0,0.0
74351731,59260,0,1.0078125,-0.02734375,0.0078125,-0.01953125,0.0,0.0,0.0
74352981,59261,0,1.005859375,-0.033203125,0.013671875,-0.01953125,0.0,0.0,0.0
74354232,59262,0,1.001953125,-0.029296875,0.015625,-0.013671875,0.0,0.0,0.0
74355483,59263,0,0.998046875,-0.03125,0.017578125,-0.013671875,0.0,0.0,0.0
74356734,59264,0,1.01171875,-0.03125,0.015625,-0.015625,0.0,0.0,0.0
74357986,59265,0,1.00390625,-0.03125,0.017578125,-0.013671875,0.0,0.0,0.0
74359236,59266,0,1.005859375,-0.037109375,0.015625,-0.021484375,0.0,0.0,0.0
74360486,59267,0,1.00390625,-0.02734375,0.005859375,-0.021484375,0.0,0.0,0.0
74361737,59268,0,0.998046875,-0.029296875,0.015625,-0.013671875,0.0,0.0,0.0
74362987,59269,0,1.0078125,-0.03515625,0.017578125,-0.017578125,0.0,0.0,0.0
74364238,59270,0,1.001953125,-0.03125,0.01953125,-0.01171875,0.0,0.0,0.0
74365489,59271,0,1.001953125,-0.037109375,0.015625,-0.021484375,0.0,0.0,0.0
74366740,59272,0,1.0078125,-0.03125,0.017578125,-0.013671875,0.0,0.0,0.0
74367991,59273,0,1.001953125,-0.02734375,0.015625,-0.01171875,0.0,0.0,0.0
74369241,59274,0,0.998046875,-0.03125,0.015625,-0.015625,0.0,0.0,0.0
74370492,59275,0,1.005859375,-0.03125,0.009765625,-0.021484375,0.0,0.0,0.0
74371744,59276,0,1.005859375,-0.033203125,0.01171875,-0.021484375,0.0,0.0,0.0
74372994,59277,0,1.001953125,-0.02734375,0.013671875,-0.013671875,0.0,0.0,0.0
74374245,59278,0,1.001953125,-0.029296875,0.013671875,-0.015625,0.0,0.0,0.0
74375496,59279,0,1.0,-0.03125,0.017578125,-0.013671875,0.0,0.0,0.0
74376747,59280,0,1.0078125,-0.03125,0.01953125,-0.01171875,0.0,0.0,0.0
74377998,59281,0,1.005859375,-0.029296875,0.01171875,-0.017578125,0.0,0.0,0.0
74379249,59282,0,0.998046875,-0.02734375,0.01171875,-0.015625,0.0,0.0,0.0
74380499,59283,0,1.009765625,-0.03125,0.01953125,-0.01171875,0.0,0.0,0.0
74381751,59284,0,1.0078125,-0.03125,0.013671875,-0.017578125,0.0,0.0,0.0
74383002,59285,0,1.0078125,-0.03125,0.01953125,-0.01171875,0.0,0.0,0.0
74384253,59286,0,0.9921875,-0.029296875,0.021484375,-0.0078125,0.0,0.0,0.0
74385503,59287,0,1.005859375,-0.033203125,0.015625,-0.017578125,0.0,0.0,0.0
74386755,59288,0,1.001953125,-0.033203125,0.01171875,-0.021484375,0.0,0.0,0.0
74388005,59289,0,0.998046875,-0.03125,0.01953125,-0.01171875,0.0,0.0,0.0
74389256,59290,0,1.001953125,-0.03125,0.013671875,-0.017578125,0.0,0.0,0.0
74390506,59291,0,0.994140625,-0.03125,0.013671875,-0.017578125,0.0,0.0,0.0
74391757,59292,0,0.99609375,-0.03125,0.01953125,-0.01171875,0.0,0.0,0.0
74393008,59293,0,1.001953125,-0.029296875,0.01953125,-0.009765625,0.0,0.0,0.0
74394258,59294,0,1.0078125,-0.03125,0.015625,-0.015625,0.0,0.0,0.0
74395508,59295,0,1.0,-0.03125,0.015625,-0.015625,0.0,0.0,0.0
74396759,59296,0,1.005859375,-0.03515625,0.015625,-0.01953125,0.0,0.0,0.0
74398009,59297,0,1.001953125,-0.03125,0.021484375,-0.009765625,0.0,0.0,0.0
74399259,59298,0,1.0078125,-0.029296875,0.013671875,-0.015625,0.0,0.0,0.0
74400510,59299,0,1.001953125,-0.033203125,0.01953125,-0.013671875,0.0,0.0,0.0
74401762,59300,0,1.00390625,-0.033203125,0.017578125,-0.015625,0.0,0.0,0.0
74403012,59301,0,1.005859375,-0.033203125,0.01953125,-0.013671875,0.0,0.0,0.0
74404271,59302,0,1.005859375,-0.029296875,0.0234375,-0.005859375,0.0,0.0,0.0
74405521,59303,0,1.005859375,-0.033203125,0.01171875,-0.021484375,0.0,0.0,0.0
74406773,59304,0,1.009765625,-0.02734375,0.021484375,-0.005859375,0.0,0.0,0.0
74408023,59305,0,1.0078125,-0.02734375,0.013671875,-0.013671875,0.0,0.0,0.0
74409274,59306,0,1.009765625,-0.029296875,0.017578125,-0.01171875,0.0,0.0,0.0
74410525,59307,0,1.00390625,-0.03125,0.01953125,-0.01171875,0.0,0.0,0.0
74411776,59308,0,1.001953125,-0.03125,0.017578125,-0.013671875,0.0,0.0,0.0
74413026,59309,0,1.00390625,-0.037109375,0.01171875,-0.025390625,0.0,0.0,0.0
74414276,59310,0,0.998046875,-0.03125,0.021484375,-0.009765625,0.0,0.0,0.0
74415527,59311,0,0.998046875,-0.03125,0.01171875,-0.01953125,0.0,0.0,0.0
74416778,59312,0,1.001953125,-0.02734375,0.01171875,-0.015625,0.0,0.0,0.0
74418029,59313,0,1.005859375,-0.033203125,0.01953125,-0.013671875,0.0,0.0,0.0
74419280,59314,0,1.001953125,-0.029296875,0.009765625,-0.01953125,0.0,0.0,0.0
74420531,59315,0,1.005859375,-0.033203125,0.01953125,-0.013671875,0.0,0.0,0.0
74421783,59316,0,1.005859375,-0.029296875,0.017578125,-0.01171875,0.0,0.0,0.0
74423034,59317,0,1.005859375,-0.03125,0.015625,-0.015625,0.0,0.0,0.0
74424286,59318,0,1.0,-0.033203125,0.01171875,-0.021484375,0.0,0.0,0.0
74425537,59319,0,1.005859375,-0.03125,0.015625,-0.015625,0.0,0.0,0.0
74426789,59320,0,1.00390625,-0.03515625,0.013671875,-0.021484375,0.0,0.0,0.0
74428039,59321,0,1.005859375,-0.03125,0.017578125,-0.013671875,0.0,0.0,0.0
74429289,59322,0,1.005859375,-0.037109375,0.015625,-0.021484375,0.0,0.0,0.0
74430541,59323,0,1.001953125,-0.03515625,0.01953125,-0.015625,0.0,0.0,0.0
74431792,59324,0,1.009765625,-0.03125,-0.0390625,-0.0703125,0.0,0.0,0.0
74433044,59325,0,1.005859375,-0.03125,0.017578125,-0.013671875,0.0,0.0,0.0
74434294,59326,0,1.013671875,-0.025390625,0.01171875,-0.013671875,0.0,0.0,0.0
74435544,59327,0,1.00390625,-0.03125,0.01953125,-0.01171875,0.0,0.0,0.0
74436795,59328,0,1.0,-0.033203125,0.015625,-0.017578125,0.0,0.0,0.0
74438045,59329,0,1.009765625,-0.037109375,0.013671875,-0.0234375,0.0,0.0,0.0
74439295,59330,0,1.0078125,-0.029296875,0.017578125,-0.01171875,0.0,0.0,0.0
74440546,59331,0,1.00390625,-0.033203125,0.013671875,-0.01953125,0.0,0.0,0.0
74441797,59332,0,1.0078125,-0.03125,0.01171875,-0.01953125,0.0,0.0,0.0
74443048,59333,0,1.005859375,-0.03125,0.01171875,-0.01953125,0.0,0.0,0.0
74444299,59334,0,0.998046875,-0.029296875,0.01171875,-0.017578125,0.0,0.0,0.0
74445550,59335,0,1.001953125,-0.03125,0.01953125,-0.01171875,0.0,0.0,0.0
74446800,59336,0,1.001953125,-0.037109375,0.015625,-0.021484375,0.0,0.0,0.0
74448052,59337,0,1.00390625,-0.029296875,0.015625,-0.013671875,0.0,0.0,0.0
74449303,59338,0,1.00390625,-0.03125,0.01171875,-0.01953125,0.0,0.0,0.0
74450554,59339,0,1.0,-0.02734375,0.01171875,-0.015625,0.0,0.0,0.0
74451805,59340,0,1.001953125,-0.03125,0.013671875,-0.017578125,0.0,0.0,0.0
74453057,59341,0,1.001953125,-0.029296875,0.017578125,-0.01171875,0.0,0.0,0.0
74454308,59342,0,1.0,-0.029296875,0.015625,-0.013671875,0.0,0.0,0.0
74455560,59343,0,1.00390625,-0.033203125,0.017578125,-0.015625,0.0,0.0,0.0
74456811,59344,0,1.009765625,-0.03125,0.015625,-0.015625,0.0,0.0,0.0
74458063,59345,0,0.998046875,-0.029296875,0.013671875,-0.015625,0.0,0.0,0.0
74459314,59346,0,1.0078125,-0.02734375,0.01171875,-0.015625,0.0,0.0,0.0
74460565,59347,0,1.0,-0.03125,0.013671875,-0.017578125,0.0,0.0,0.0
74461816,59348,0,1.005859375,-0.03125,0.021484375,-0.009765625,0.0,0.0,0.0
74463066,59349,0,1.00390625,-0.02734375,0.015625,-0.01171875,0.0,0.0,0.0
74464318,59350,0,1.005859375,-0.033203125,0.01953125,-0.013671875,0.0,0.0,0.0
74465569,59351,0,1.0078125,-0.03125,0.017578125,-0.013671875,0.0,0.0,0.0
74466819,59352,0,1.001953125,-0.029296875,0.017578125,-0.01171875,0.0,0.0,0.0
74468070,59353,0,0.998046875,-0.03515625,0.01953125,-0.015625,0.0,0.0,0.0
74469321,59354,0,1.001953125,-0.03125,0.017578125,-0.013671875,0.0,0.0,0.0
74470572,59355,0,1.0078125,-0.03125,0.015625,-0.015625,0.0,0.0,0.0
74471823,59356,0,1.001953125,-0.029296875,0.013671875,-0.015625,0.0,0.0,0.0
74473074,59357,0,1.005859375,-0.02734375,0.013671875,-0.013671875,0.0,0.0,0.0
74474325,59358,0,0.998046875,-0.033203125,0.015625,-0.017578125,0.0,0.0,0.0
74475575,59359,0,1.001953125,-0.03515625,0.013671875,-0.021484375,0.0,0.0,0.0
74476825,59360,0,1.00390625,-0.03515625,0.013671875,-0.021484375,0.0,0.0,0.0
74478076,59361,0,1.001953125,-0.03125,0.013671875,-0.017578125,0.0,0.0,0.0
74479326,59362,0,1.005859375,-0.033203125,0.017578125,-0.015625,0.0,0.0,0.0
74480577,59363,0,1.00390625,-0.02734375,0.017578125,-0.009765625,0.0,0.0,0.0
74481828,59364,0,1.009765625,-0.033203125,0.017578125,-0.015625,0.0,0.0,0.0
74483078,59365,0,1.00390625,-0.033203125,0.01953125,-0.013671875,0.0,0.0,0.0
74484329,59366,0,1.005859375,-0.033203125,0.009765625,-0.0234375,0.0,0.0,0.0
74485581,59367,0,1.001953125,-0.03515625,0.021484375,-0.013671875,0.0,0.0,0.0
74486833,59368,0,0.99609375,-0.029296875,0.01953125,-0.009765625,0.0,0.0,0.0
74488083,59369,0,1.013671875,-0.03515625,0.015625,-0.01953125,0.0,0.0,0.0
74489333,59370,0,1.001953125,-0.03125,0.021484375,-0.009765625,0.0,0.0,0.0
74490584,59371,0,1.009765625,-0.03125,0.015625,-0.015625,0.0,0.0,0.0
74491835,59372,0,1.005859375,-0.03125,0.017578125,-0.013671875,0.0,0.0,0.0
74493085,59373,0,1.0078125,-0.033203125,0.017578125,-0.015625,0.0,0.0,0.0
74494336,59374,0,1.001953125,-0.03125,0.017578125,-0.013671875,0.0,0.0,23364622090240.0
74496838,59376,0,0.998046875,-0.03515625,0.013671875,-0.021484375,0.0,0.0,0.0
74498090,59377,0,0.998046875,-0.025390625,0.017578125,-0.0078125,0.0,0.0,0.0
74499341,59378,0,1.00390625,-0.033203125,0.017578125,-0.015625,0.0,0.0,0.0
74500592,59379,0,1.005859375,-0.033203125,0.017578125,-0.015625,0.0,0.0,0.0
74501844,59380,0,1.005859375,-0.03515625,0.013671875,-0.021484375,0.0,0.0,0.0
74503095,59381,0,1.0078125,-0.03125,0.01953125,-0.01171875,0.0,0.0,0.0
74504346,59382,0,1.005859375,-0.033203125,0.015625,-0.017578125,0.0,0.0,0.0
74505597,59383,0,1.001953125,-0.033203125,0.015625,-0.017578125,0.0,0.0,0.0
74506849,59384,0,1.001953125,-0.025390625,0.021484375,-0.00390625,0.0,0.0,0.0
74508099,59385,0,1.01171875,-0.029296875,0.015625,-0.013671875,0.0,0.0,0.0
74509351,59386,0,1.001953125,-0.03125,0.01953125,-0.01171875,0.0,0.0,0.0
74510602,59387,0,1.009765625,-0.03125,0.015625,-0.015625,0.0,0.0,0.0
74511854,59388,0,1.0078125,-0.03125,0.029296875,-0.001953125,0.0,0.0,0.0
74513104,59389,0,1.0,-0.033203125,0.015625,-0.017578125,0.0,0.0,0.0
74514354,59390,0,0.998046875,-0.03125,0.015625,-0.015625,0.0,0.0,0.0
74515605,59391,0,0.994140625,-0.025390625,0.017578125,-0.0078125,0.0,0.0,0.0
74516855,59392,0,0.998046875,-0.029296875,0.01171875,-0.017578125,0.0,0.0,0.0
74518107,59393,0,1.013671875,-0.02734375,0.013671875,-0.013671875,0.0,0.0,0.0
74519358,59394,0,1.00390625,-0.029296875,0.01953125,-0.009765625,0.0,0.0,0.0
74520609,59395,0,1.001953125,-0.033203125,0.013671875,-0.01953125,0.0,0.0,0.0
74521859,59396,0,1.001953125,-0.029296875,0.009765625,-0.01953125,0.0,0.0,0.0
74523111,59397,0,1.005859375,-0.029296875,0.015625,-0.013671875,0.0,0.0,0.0
74524362,59398,0,1.0,-0.02734375,0.013671875,-0.013671875,0.0,0.0,0.0
74525613,59399,0,0.99609375,-0.025390625,0.01953125,-0.005859375,0.0,0.0,0.0
74526865,59400,0,1.00390625,-0.03125,0.009765625,-0.021484375,0.0,0.0,0.0
74528115,59401,0,1.0,-0.025390625,0.013671875,-0.01171875,0.0,0.0,0.0
74529365,59402,0,1.001953125,-0.029296875,0.01953125,-0.009765625,0.0,0.0,0.0
74530617,59403,0,1.001953125,-0.02734375,0.013671875,-0.013671875,0.0,0.0,0.0
74531867,59404,0,0.998046875,-0.03125,0.01953125,-0.01171875,0.0,0.0,0.0
74533118,59405,0,1.00390625,-0.02734375,0.01953125,-0.0078125,0.0,0.0,0.0
74534369,59406,0,1.00390625,-0.02734375,0.01171875,-0.015625,0.0,0.0,0.0
74535620,59407,0,1.001953125,-0.029296875,0.009765625,-0.01953125,0.0,0.0,0.0
74536871,59408,0,1.00390625,-0.033203125,0.01171875,-0.021484375,0.0,0.0,0.0
74538123,59409,0,0.99609375,-0.03125,0.01953125,-0.01171875,0.0,0.0,0.0
74539374,59410,0,1.001953125,-0.033203125,0.01171875,-0.021484375,0.0,0.0,0.0
74540624,59411,0,1.013671875,-0.029296875,0.017578125,-0.01171875,0.0,0.0,0.0
74541875,59412,0,1.013671875,-0.03125,0.01953125,-0.01171875,0.0,0.0,0.0
74543125,59413,0,1.013671875,-0.03125,0.017578125,-0.013671875,0.0,0.0,0.0
74544375,59414,0,1.005859375,-0.02734375,0.0078125,-0.01953125,0.0,0.0,0.0
74545626,59415,0,1.0078125,-0.033203125,0.005859375,-0.02734375,0.0,0.0,0.0
74546877,59416,0,1.001953125,-0.02734375,0.01953125,-0.0078125,0.0,0.0,0.0
74548129,59417,0,1.001953125,-0.03125,0.015625,-0.015625,0.0,0.0,0.0
74549380,59418,0,1.001953125,-0.029296875,0.01171875,-0.017578125,0.0,0.0,0.0
74550630,59419,0,0.99609375,-0.03125,0.01953125,-0.01171875,0.0,0.0,0.0
74551881,59420,0,0.998046875,-0.033203125,0.017578125,-0.015625,0.0,0.0,0.0
74553133,59421,0,1.0078125,-0.029296875,0.013671875,-0.015625,0.0,0.0,0.0
74554384,59422,0,1.005859375,-0.033203125,0.013671875,-0.01953125,0.0,0.0,0.0
74555634,59423,0,1.001953125,-0.029296875,0.015625,-0.013671875,0.0,0.0,0.0
74556886,59424,0,1.005859375,-0.03515625,0.013671875,-0.021484375,0.0,0.0,0.0
74558136,59425,0,1.005859375,-0.029296875,0.017578125,-0.01171875,0.0,0.0,0.0
74559386,59426,0,1.0,-0.03125,0.01171875,-0.01953125,0.0,0.0,0.0
74560638,59427,0,1.001953125,-0.029296875,0.013671875,-0.015625,0.0,0.0,0.0
74561888,59428,0,1.0078125,-0.029296875,0.013671875,-0.015625,0.0,0.0,0.0
74563139,59429,0,1.0,-0.02734375,0.017578125,-0.009765625,0.0,0.0,0.0
74564391,59430,0,1.013671875,-0.033203125,0.017578125,-0.015625,0.0,0.0,0.0
74565641,59431,0,1.0078125,-0.02734375,0.015625,-0.01171875,0.0,0.0,0.0
74566892,59432,0,1.013671875,-0.03125,0.017578125,-0.013671875,0.0,0.0,0.0
74568142,59433,0,0.998046875,-0.02734375,0.009765625,-0.017578125,0.0,0.0,0.0
74569393,59434,0,0.994140625,-0.025390625,0.015625,-0.009765625,0.0,0.0,0.0
74570645,59435,0,1.001953125,-0.03125,0.009765625,-0.021484375,0.0,0.0,0.0
74571895,59436,0,1.0,-0.03125,0.009765625,-0.021484375,0.0,0.0,0.0
74573147,59437,0,1.01171875,-0.037109375,0.01171875,-0.025390625,0.0,0.0,0.0
74574397,59438,0,1.001953125,-0.033203125,0.021484375,-0.01171875,0.0,0.0,0.0
74575649,59439,0,1.001953125,-0.033203125,0.01171875,-0.021484375,0.0,0.0,0.0
74576899,59440,0,1.001953125,-0.033203125,0.0078125,-0.025390625,0.0,0.0,0.0
74578149,59441,0,0.99609375,-0.03515625,0.009765625,-0.025390625,0.0,0.0,0.0
74579399,59442,0,1.0,-0.033203125,0.01171875,-0.021484375,0.0,0.0,0.0
74580650,59443,0,1.001953125,-0.03125,0.015625,-0.015625,0.0,0.0,0.0
74581902,59444,0,1.005859375,-0.03125,0.009765625,-0.021484375,0.0,0.0,0.0
74583153,59445,0,1.0078125,-0.03125,0.015625,-0.015625,0.0,0.0,0.0
74584404,59446,0,1.0078125,-0.03125,0.01171875,-0.01953125,0.0,0.0,0.0
74585654,59447,0,1.009765625,-0.03125,0.01171875,-0.01953125,0.0,0.0,0.0
74586904,59448,0,0.998046875,-0.03125,0.01953125,-0.01171875,0.0,0.0,0.0
74588155,59449,0,0.998046875,-0.03125,0.01953125,-0.01171875,0.0,0.0,0.0
74589407,59450,0,1.001953125,-0.03515625,0.017578125,-0.017578125,0.0,0.0,0.0
74590657,59451,0,1.0078125,-0.025390625,0.01953125,-0.005859375,0.0,0.0,0.0
74591909,59452,0,1.017578125,-0.02734375,0.01953125,-0.0078125,0.0,0.0,0.0
74593159,59453,0,1.005859375,-0.03125,0.015625,-0.015625,0.0,0.0,0.0
74594409,59454,0,1.005859375,-0.033203125,0.013671875,-0.01953125,0.0,0.0,0.0
74595661,59455,0,1.005859375,-0.029296875,0.017578125,-0.01171875,0.0,0.0,0.0
74596911,59456,0,1.001953125,-0.03125,0.015625,-0.015625,0.0,0.0,0.0
74598161,59457,0,1.013671875,-0.029296875,0.013671875,-0.015625,0.0,0.0,0.0
74599411,59458,0,1.001953125,-0.03125,0.021484375,-0.009765625,0.0,0.0,0.0
74600663,59459,0,1.0,-0.03125,0.015625,-0.015625,0.0,0.0,0.0
74601913,59460,0,1.0078125,-0.033203125,0.017578125,-0.015625,0.0,0.0,0.0
74603164,59461,0,1.001953125,-0.029296875,0.015625,-0.013671875,0.0,0.0,0.0
74604415,59462,0,1.005859375,-0.03125,0.01953125,-0.01171875,0.0,0.0,0.0
74605666,59463,0,1.005859375,-0.02734375,0.01953125,-0.0078125,0.0,0.0,0.0
74606916,59464,0,1.005859375,-0.033203125,0.01171875,-0.021484375,0.0,0.0,0.0
74608167,59465,0,1.005859375,-0.041015625,0.01171875,-0.029296875,0.0,0.0,0.0
74609417,59466,0,1.0,-0.044921875,0.0078125,-0.037109375,0.0,0.0,0.0
74610668,59467,0,1.001953125,-0.064453125,-0.005859375,-0.0703125,0.0,0.0,0.0
74611920,59468,0,1.0,-0.060546875,-0.00390625,-0.064453125,0.0,0.0,0.0
74613171,59469,0,1.0,-0.041015625,0.005859375,-0.03515625,0.0,0.0,0.0
74614421,59470,0,1.005859375,-0.041015625,0.01171875,-0.029296875,0.0,0.0,0.0
74615672,59471,0,1.00390625,-0.0390625,0.009765625,-0.029296875,0.0,0.0,0.0
74616924,59472,0,0.9921875,-0.041015625,0.01171875,-0.029296875,0.0,0.0,0.0
74618174,59473,0,0.998046875,-0.044921875,0.01171875,-0.033203125,0.0,0.0,0.0
74619425,59474,0,1.0,-0.041015625,0.013671875,-0.02734375,0.0,0.0,0.0
74620677,59475,0,0.99609375,-0.046875,0.0078125,-0.0390625,0.0,0.0,0.0
74621927,59476,0,0.998046875,-0.0546875,0.001953125,-0.052734375,0.0,0.0,0.0
74623177,59477,0,1.00390625,-0.0546875,0.0078125,-0.046875,0.0,0.0,0.0
74624429,59478,0,0.998046875,-0.064453125,-0.009765625,-0.07421875,0.0,0.0,0.0
74625679,59479,0,0.98828125,-0.08203125,-0.017578125,-0.099609375,0.0,0.0,0.0
74626931,59480,0,0.9921875,-0.076171875,-0.0078125,-0.083984375,0.0,0.0,0.0
74628181,59481,0,0.990234375,-0.076171875,-0.0078125,-0.083984375,0.0,0.0,0.0
74629431,59482,0,0.99609375,-0.091796875,-0.013671875,-0.10546875,0.0,0.0,0.0
74630683,59483,0,0.98828125,-0.091796875,-0.017578125,-0.109375,0.0,0.0,0.0
74631933,59484,0,0.98828125,-0.068359375,-0.00390625,-0.072265625,0.0,0.0,0.0
74633183,59485,0,1.001953125,-0.056640625,-0.005859375,-0.0625,0.0,0.0,0.0
74634434,59486,0,0.994140625,-0.060546875,-0.005859375,-0.06640625,0.0,0.0,0.0
74635685,59487,0,1.005859375,-0.041015625,-0.001953125,-0.04296875,0.0,0.0,0.0
74636936,59488,0,1.0,-0.060546875,0.001953125,-0.05859375,0.0,0.0,0.0
74638186,59489,0,0.99609375,-0.1015625,-0.029296875,-0.130859375,0.0,0.0,0.0
74639437,59490,0,0.994140625,-0.09375,-0.029296875,-0.123046875,0.0,0.0,0.0
74640687,59491,0,0.984375,-0.1015625,-0.02734375,-0.12890625,0.0,0.0,0.0
74641937,59492,0,0.978515625,-0.041015625,0.00390625,-0.037109375,0.0,0.0,0.0
74643188,59493,0,0.98828125,-0.1015625,-0.00390625,-0.10546875,0.0,0.0,0.0
74644440,59494,0,1.0078125,-0.076171875,-0.001953125,-0.078125,0.0,0.0,0.0
74645690,59495,0,1.005859375,-0.083984375,0.0,-0.083984375,0.0,0.0,0.0
74646942,59496,0,1.009765625,-0.107421875,0.0,-0.107421875,0.0,0.0,0.0
74648193,59497,0,1.037109375,-0.23828125,0.015625,-0.22265625,0.0,0.0,0.0
74649445,59498,0,0.966796875,-0.3203125,-0.126953125,-0.447265625,0.0,0.0,0.0
74650695,59499,0,0.986328125,-0.2890625,-0.072265625,-0.361328125,0.0,0.0,0.0
74651947,59500,0,0.97265625,-0.17578125,-0.041015625,-0.216796875,0.0,0.0,0.0
74653198,59501,0,1.015625,-0.07421875,0.00390625,-0.0703125,0.0,0.0,0.0
74654450,59502,0,1.2265625,-0.20703125,0.05859375,-0.1484375,0.0,0.0,0.0
74655700,59503,0,0.953125,-0.537109375,-0.189453125,-0.7265625,0.0,0.0,0.0
74656952,59504,0,1.064453125,-1.32421875,-0.400390625,-1.724609375,0.0,0.0,0.0
74658203,59505,0,-0.07421875,-4.0,-1.99609375,-5.99609375,0.0,0.0,0.0
74659454,59506,0,0.802734375,-2.337890625,-0.880859375,-3.21875,0.0,0.0,0.0
74660705,59507,0,1.142578125,-0.03515625,-0.1953125,-0.23046875,0.0,0.0,0.0
74661957,59508,0,0.8046875,1.1796875,0.322265625,1.501953125,0.0,0.0,0.0
74663207,59509,0,1.115234375,1.61328125,0.63671875,2.25,0.0,0.0,0.0
74664459,59510,0,0.9921875,1.3125,0.52734375,1.83984375,0.0,0.0,0.0
74665709,59511,0,1.05859375,0.693359375,0.232421875,0.92578125,0.0,0.0,0.0
74666959,59512,0,0.974609375,0.091796875,0.0625,0.154296875,0.0,0.0,0.0
74668209,59513,0,0.974609375,-0.232421875,-0.091796875,-0.32421875,0.0,0.0,0.0
74669459,59514,0,1.00390625,-0.43359375,-0.216796875,-0.650390625,0.0,0.0,0.0
74670711,59515,0,1.041015625,-0.49609375,-0.228515625,-0.724609375,0.0,0.0,0.0
74671961,59516,0,1.00390625,-0.537109375,-0.22265625,-0.759765625,0.0,0.0,0.0
74673213,59517,0,0.9140625,-0.833984375,-0.35546875,-1.189453125,0.0,0.0,0.0
74674464,59518,0,1.0703125,-1.23828125,-0.5078125,-1.74609375,0.0,0.0,0.0
74675715,59519,0,0.9609375,-2.583984375,-0.857421875,-3.44140625,0.0,0.0,0.0
74676966,59520,0,0.78125,-4.0,-1.921875,-5.921875,0.0,0.0,0.0
74678216,59521,0,0.9375,-4.0,-2.013671875,-6.013671875,0.0,0.0,0.0
74679467,59522,0,0.77734375,-2.8671875,-2.21484375,-5.08203125,0.0,0.0,0.0
74680718,59523,0,1.095703125,0.736328125,-0.599609375,0.13671875,0.0,0.0,0.0
74681968,59524,0,1.10546875,3.7109375,0.458984375,4.169921875,0.0,0.0,0.0
74683219,59525,0,1.20703125,3.998046875,1.509765625,5.5078125,0.0,0.0,0.0
74684470,59526,0,1.224609375,3.998046875,2.1640625,6.162109375,0.0,0.0,0.0
74685721,59527,0,1.205078125,3.998046875,2.361328125,6.359375,0.0,0.0,0.0
74686971,59528,0,0.982421875,3.998046875,2.17578125,6.173828125,0.0,0.0,0.0
74688223,59529,0,1.140625,3.646484375,1.453125,5.099609375,0.0,0.0,0.0
74689473,59530,0,0.98046875,1.662109375,0.685546875,2.34765625,0.0,0.0,0.0
74690723,59531,0,0.994140625,-0.2734375,-0.087890625,-0.361328125,0.0,0.0,0.0
74691975,59532,0,0.984375,-1.896484375,-0.69140625,-2.587890625,0.0,0.0,0.0
74693226,59533,0,1.03125,-2.94140625,-1.1328125,-4.07421875,0.0,0.0,0.0
74694476,59534,0,0.921875,-3.345703125,-1.224609375,-4.5703125,0.0,0.0,0.0
74695728,59535,0,0.83984375,-3.09375,-1.13671875,-4.23046875,0.0,0.0,0.0
74696979,59536,0,0.91796875,-2.318359375,-0.921875,-3.240234375,0.0,0.0,0.0
74698229,59537,0,0.91796875,-1.21875,-0.52734375,-1.74609375,0.0,0.0,0.0
74699481,59538,0,0.990234375,-0.033203125,-0.125,-0.158203125,0.0,0.0,0.0
74700731,59539,0,1.078125,0.92578125,0.240234375,1.166015625,0.0,0.0,0.0
74701981,59540,0,1.140625,1.65234375,0.564453125,2.216796875,0.0,0.0,0.0
74703232,59541,0,1.08203125,1.990234375,0.740234375,2.73046875,0.0,0.0,0.0
74704483,59542,0,1.0546875,1.927734375,0.642578125,2.5703125,0.0,0.0,0.0
74705734,59543,0,1.0625,0.955078125,0.45703125,1.412109375,0.0,0.0,0.0
74706986,59544,0,0.94140625,0.263671875,0.1875,0.451171875,0.0,0.0,0.0
74708236,59545,0,1.03125,-0.365234375,-0.099609375,-0.46484375,0.0,0.0,0.0
74709486,59546,0,1.001953125,-0.85546875,-0.279296875,-1.134765625,0.0,0.0,0.0
74710737,59547,0,1.001953125,-1.123046875,-0.390625,-1.513671875,0.0,0.0,0.0
74711987,59548,0,1.005859375,-1.158203125,-0.416015625,-1.57421875,0.0,0.0,0.0
74713238,59549,0,0.970703125,-0.978515625,-0.33984375,-1.318359375,0.0,0.0,0.0
74714489,59550,0,0.92578125,-0.66015625,-0.205078125,-0.865234375,0.0,0.0,0.0
74715740,59551,0,0.97265625,-0.25,-0.076171875,-0.326171875,0.0,0.0,0.0
74716991,59552,0,1.005859375,0.12109375,0.05859375,0.1796875,0.0,0.0,0.0
74718241,59553,0,1.005859375,0.435546875,0.185546875,0.62109375,0.0,0.0,0.0
74719492,59554,0,1.05859375,0.6171875,0.25,0.8671875,0.0,0.0,0.0
74720744,59555,0,1.072265625,0.658203125,0.265625,0.923828125,0.0,0.0,0.0
74721994,59556,0,1.02734375,0.572265625,0.259765625,0.83203125,0.0,0.0,0.0
74723245,59557,0,0.99609375,0.384765625,0.208984375,0.59375,0.0,0.0,0.0
74724496,59558,0,0.998046875,0.15234375,0.111328125,0.263671875,0.0,0.0,0.0
74725747,59559,0,0.97265625,-0.078125,0.03125,-0.046875,0.0,0.0,0.0
74726998,59560,0,0.970703125,-0.26171875,-0.056640625,-0.318359375,0.0,0.0,0.0
74728249,59561,0,1.02734375,-0.39453125,-0.123046875,-0.517578125,0.0,0.0,0.0
74729499,59562,0,1.017578125,-0.42578125,-0.142578125,-0.568359375,0.0,0.0,0.0
74730751,59563,0,1.001953125,-0.375,-0.1171875,-0.4921875,0.0,0.0,0.0
74732002,59564,0,1.00390625,-0.259765625,-0.07421875,-0.333984375,0.0,0.0,0.0
74733253,59565,0,0.986328125,-0.12109375,-0.015625,-0.13671875,0.0,0.0,0.0
74734503,59566,0,0.96875,0.013671875,0.041015625,0.0546875,0.0,0.0,0.0
74735755,59567,0,0.994140625,0.12109375,0.076171875,0.197265625,0.0,0.0,0.0
74737005,59568,0,1.025390625,0.197265625,0.091796875,0.2890625,0.0,0.0,0.0
74738256,59569,0,1.02734375,0.21875,0.109375,0.328125,0.0,0.0,0.0
74739506,59570,0,1.02734375,0.201171875,0.107421875,0.30859375,0.0,0.0,0.0
74740757,59571,0,1.03125,0.1484375,0.08203125,0.23046875,0.0,0.0,0.0
74742008,59572,0,0.994140625,0.078125,0.072265625,0.150390625,0.0,0.0,0.0
74743258,59573,0,0.978515625,-0.0078125,0.041015625,0.033203125,0.0,0.0,0.0
74744508,59574,0,0.9921875,-0.0703125,0.00390625,-0.06640625,0.0,0.0,0.0
74745759,59575,0,0.998046875,-0.1171875,-0.029296875,-0.146484375,0.0,0.0,0.0
74747009,59576,0,1.0078125,-0.134765625,-0.0390625,-0.173828125,0.0,0.0,0.0
74748259,59577,0,1.0234375,-0.126953125,-0.04296875,-0.169921875,0.0,0.0,0.0
74749510,59578,0,1.025390625,-0.095703125,-0.02734375,-0.123046875,0.0,0.0,0.0
74750762,59579,0,1.0,-0.05078125,0.009765625,-0.041015625,0.0,0.0,0.0
74752012,59580,0,0.998046875,-0.0078125,0.017578125,0.009765625,0.0,0.0,0.0
74753271,59581,0,0.994140625,0.0390625,0.046875,0.0859375,0.0,0.0,0.0
74754521,59582,0,1.001953125,0.0625,0.056640625,0.119140625,0.0,0.0,0.0
74755773,59583,0,1.00390625,0.078125,0.052734375,0.130859375,0.0,0.0,0.0
74757023,59584,0,1.03125,0.068359375,0.033203125,0.1015625,0.0,0.0,0.0
74758274,59585,0,1.025390625,0.056640625,0.03125,0.087890625,0.0,0.0,0.0
74759525,59586,0,1.0078125,-0.00390625,0.0234375,0.01953125,0.0,0.0,0.0
74760776,59587,0,1.00390625,-0.02734375,0.017578125,-0.009765625,0.0,0.0,0.0
74762026,59588,0,0.984375,-0.046875,0.0078125,-0.0390625,0.0,0.0,0.0
74763276,59589,0,0.998046875,-0.056640625,-0.001953125,-0.05859375,0.0,0.0,0.0
74764527,59590,0,1.015625,-0.05859375,-0.00390625,-0.0625,0.0,0.0,0.0
74765778,59591,0,1.01171875,-0.05078125,-0.00390625,-0.0546875,0.0,0.0,0.0
74767029,59592,0,1.015625,-0.041015625,-0.00390625,-0.044921875,0.0,0.0,0.0
74768280,59593,0,1.0078125,-0.03125,0.005859375,-0.025390625,0.0,0.0,0.0
74769531,59594,0,0.994140625,-0.015625,0.0234375,0.0078125,0.0,0.0,0.0
74770783,59595,0,0.98828125,-0.00390625,0.02734375,0.0234375,0.0,0.0,0.0
74772034,59596,0,0.9921875,0.0,0.02734375,0.02734375,0.0,0.0,0.0
74773286,59597,0,1.001953125,-0.005859375,0.01953125,0.013671875,0.0,0.0,0.0
74774537,59598,0,1.0078125,-0.01171875,0.013671875,0.001953125,0.0,0.0,0.0
74775789,59599,0,1.029296875,-0.0234375,0.015625,-0.0078125,0.0,0.0,0.0
74777039,59600,0,1.01953125,-0.037109375,0.005859375,-0.03125,0.0,0.0,0.0
74778289,59601,0,1.00390625,-0.041015625,0.0078125,-0.033203125,0.0,0.0,0.0
74779541,59602,0,0.990234375,-0.046875,0.013671875,-0.033203125,0.0,0.0,0.0
74780792,59603,0,1.001953125,-0.046875,0.0,-0.046875,0.0,0.0,0.0
74782044,59604,0,1.0,-0.0546875,0.009765625,-0.044921875,0.0,0.0,0.0
74783294,59605,0,1.00390625,-0.046875,0.00390625,-0.04296875,0.0,0.0,0.0
74784544,59606,0,1.01953125,-0.044921875,0.0078125,-0.037109375,0.0,0.0,0.0
74785795,59607,0,1.021484375,-0.03515625,0.005859375,-0.029296875,0.0,0.0,0.0
74787045,59608,0,1.017578125,-0.03515625,0.005859375,-0.029296875,0.0,0.0,0.0
74788295,59609,0,0.9921875,-0.03515625,0.015625,-0.01953125,0.0,0.0,0.0
74789546,59610,0,0.9921875,-0.03125,0.0234375,-0.0078125,0.0,0.0,0.0
74790797,59611,0,0.9921875,-0.029296875,0.021484375,-0.0078125,0.0,0.0,0.0
74792048,59612,0,1.001953125,-0.033203125,0.015625,-0.017578125,0.0,0.0,0.0
74793299,59613,0,1.005859375,-0.03125,0.015625,-0.015625,0.0,0.0,0.0
74794550,59614,0,1.01171875,-0.03125,0.01171875,-0.01953125,0.0,0.0,0.0
74795800,59615,0,1.009765625,-0.033203125,0.0078125,-0.025390625,0.0,0.0,0.0
74797052,59616,0,1.00390625,-0.033203125,0.01171875,-0.021484375,0.0,0.0,0.0
74798303,59617,0,0.994140625,-0.037109375,0.01953125,-0.017578125,0.0,0.0,0.0
74799554,59618,0,0.99609375,-0.03515625,0.01953125,-0.015625,0.0,0.0,0.0
74800805,59619,0,0.998046875,-0.033203125,0.015625,-0.017578125,0.0,0.0,0.0
74802057,59620,0,1.0,-0.03125,0.01953125,-0.01171875,0.0,0.0,0.0
74803308,59621,0,1.01171875,-0.0234375,0.013671875,-0.009765625,0.0,0.0,0.0
74804560,59622,0,1.015625,-0.025390625,0.015625,-0.009765625,0.0,0.0,0.0
74805811,59623,0,1.015625,-0.01953125,0.017578125,-0.001953125,0.0,0.0,0.0
74807063,59624,0,0.990234375,-0.021484375,0.0234375,0.001953125,0.0,0.0,0.0
74808314,59625,0,0.99609375,-0.02734375,0.01953125,-0.0078125,0.0,0.0,0.0
74809565,59626,0,0.99609375,-0.01953125,0.01953125,0.0,0.0,0.0,0.0
74810816,59627,0,0.994140625,-0.021484375,0.021484375,0.0,0.0,0.0,0.0
74812066,59628,0,0.998046875,-0.021484375,0.015625,-0.005859375,0.0,0.0,0.0
74813318,59629,0,1.005859375,-0.01953125,0.015625,-0.00390625,0.0,0.0,0.0
74814569,59630,0,1.0078125,-0.015625,0.017578125,0.001953125,0.0,0.0,0.0
74815819,59631,0,1.001953125,-0.015625,0.015625,0.0,0.0,0.0,0.0
74817070,59632,0,1.00390625,-0.017578125,0.0234375,0.005859375,0.0,0.0,0.0
74818321,59633,0,0.99609375,-0.009765625,0.021484375,0.01171875,0.0,0.0,0.0
74819572,59634,0,1.005859375,-0.017578125,0.013671875,-0.00390625,0.0,0.0,0.0
74820823,59635,0,1.001953125,-0.01953125,0.021484375,0.001953125,0.0,0.0,0.0
74822074,59636,0,1.0078125,-0.017578125,0.021484375,0.00390625,0.0,0.0,0.0
74823325,59637,0,1.009765625,-0.013671875,0.017578125,0.00390625,0.0,0.0,0.0
74824575,59638,0,1.009765625,-0.015625,0.015625,0.0,0.0,0.0,0.0
74825825,59639,0,1.0078125,-0.01953125,0.0234375,0.00390625,0.0,0.0,0.0
74827076,59640,0,1.001953125,-0.017578125,0.017578125,0.0,0.0,0.0,0.0
74828326,59641,0,1.005859375,-0.01953125,0.013671875,-0.005859375,0.0,0.0,0.0
74829577,59642,0,1.001953125,-0.021484375,0.017578125,-0.00390625,0.0,0.0,0.0
74830828,59643,0,0.998046875,-0.021484375,0.015625,-0.005859375,0.0,0.0,0.0
74832078,59644,0,1.0078125,-0.021484375,0.009765625,-0.01171875,0.0,0.0,0.0
74833329,59645,0,1.013671875,-0.0234375,0.009765625,-0.013671875,0.0,0.0,0.0
74834581,59646,0,1.0,-0.029296875,0.017578125,-0.01171875,0.0,0.0,0.0
74835833,59647,0,1.005859375,-0.0234375,0.013671875,-0.009765625,0.0,0.0,0.0
74837083,59648,0,1.01171875,-0.01953125,0.015625,-0.00390625,0.0,0.0,0.0
74838333,59649,0,0.99609375,-0.02734375,0.015625,-0.01171875,0.0,0.0,0.0
74839584,59650,0,1.0,-0.025390625,0.009765625,-0.015625,0.0,0.0,0.0
74840835,59651,0,1.0078125,-0.02734375,0.01953125,-0.0078125,0.0,0.0,0.0
74842085,59652,0,1.0,-0.03125,0.009765625,-0.021484375,0.0,0.0,0.0
74843336,59653,0,0.998046875,-0.029296875,0.015625,-0.013671875,0.0,0.0,0.0
74844587,59654,0,1.005859375,-0.029296875,0.01171875,-0.017578125,0.0,0.0,0.0
74845838,59655,0,1.00390625,-0.02734375,0.01171875,-0.015625,0.0,0.0,0.0
74847090,59656,0,1.0078125,-0.03125,0.01953125,-0.01171875,0.0,0.0,0.0
74848341,59657,0,1.005859375,-0.033203125,0.015625,-0.017578125,0.0,0.0,0.0
74849592,59658,0,1.00390625,-0.03125,0.009765625,-0.021484375,0.0,0.0,0.0
74850844,59659,0,0.998046875,-0.029296875,0.01171875,-0.017578125,0.0,0.0,0.0
74852095,59660,0,1.0078125,-0.033203125,0.013671875,-0.01953125,0.0,0.0,0.0
74853346,59661,0,1.0078125,-0.03125,0.013671875,-0.017578125,0.0,0.0,0.0
74854597,59662,0,1.00390625,-0.029296875,0.009765625,-0.01953125,0.0,0.0,0.0
74855849,59663,0,1.0,-0.025390625,0.017578125,-0.0078125,0.0,0.0,0.0
74857099,59664,0,1.00390625,-0.025390625,0.01171875,-0.013671875,0.0,0.0,0.0
74858351,59665,0,1.0078125,-0.02734375,0.017578125,-0.009765625,0.0,0.0,0.0
74859602,59666,0,0.998046875,-0.02734375,0.015625,-0.01171875,0.0,0.0,0.0
74860854,59667,0,1.005859375,-0.025390625,0.015625,-0.009765625,0.0,0.0,0.0
74862104,59668,0,1.015625,-0.025390625,0.021484375,-0.00390625,0.0,0.0,0.0
74863354,59669,0,1.0078125,-0.029296875,0.013671875,-0.015625,0.0,0.0,0.0
74864605,59670,0,1.001953125,-0.033203125,0.01171875,-0.021484375,0.0,0.0,0.0
74865855,59671,0,1.0078125,-0.029296875,0.013671875,-0.015625,0.0,0.0,0.0
74867107,59672,0,1.0078125,-0.029296875,0.015625,-0.013671875,0.0,0.0,0.0
74868358,59673,0,1.00390625,-0.025390625,0.017578125,-0.0078125,0.0,0.0,0.0
74869609,59674,0,1.0,-0.025390625,0.0234375,-0.001953125,0.0,0.0,0.0
74870859,59675,0,1.005859375,-0.0234375,0.017578125,-0.005859375,0.0,0.0,0.0
74872111,59676,0,1.005859375,-0.025390625,0.01953125,-0.005859375,0.0,0.0,0.0
74873362,59677,0,1.001953125,-0.021484375,0.021484375,0.0,0.0,0.0,0.0
74874613,59678,0,1.00390625,-0.025390625,0.021484375,-0.00390625,0.0,0.0,0.0
74875865,59679,0,1.00390625,-0.0234375,0.021484375,-0.001953125,0.0,0.0,0.0
74877115,59680,0,0.998046875,-0.025390625,0.021484375,-0.00390625,0.0,0.0,0.0
74878365,59681,0,1.001953125,-0.02734375,0.025390625,-0.001953125,0.0,0.0,0.0
74879617,59682,0,1.0,-0.0234375,0.0234375,0.0,0.0,0.0,0.0
74880867,59683,0,1.0078125,-0.0234375,0.021484375,-0.001953125,0.0,0.0,0.0
74882118,59684,0,1.00390625,-0.0234375,0.021484375,-0.001953125,0.0,0.0,0.0
74883369,59685,0,1.001953125,-0.0234375,0.021484375,-0.001953125,0.0,0.0,0.0
74884620,59686,0,1.001953125,-0.0234375,0.02734375,0.00390625,0.0,0.0,0.0
74885871,59687,0,1.001953125,-0.01953125,0.021484375,0.001953125,0.0,0.0,0.0
74887123,59688,0,0.998046875,-0.02734375,0.0234375,-0.00390625,0.0,0.0,0.0
74888374,59689,0,1.009765625,-0.021484375,0.0234375,0.001953125,0.0,0.0,0.0
74889624,59690,0,1.00390625,-0.01953125,0.025390625,0.005859375,0.0,0.0,0.0
74890875,59691,0,1.01171875,-0.0234375,0.025390625,0.001953125,0.0,0.0,0.0
74892125,59692,0,1.001953125,-0.025390625,0.021484375,-0.00390625,0.0,0.0,0.0
74893375,59693,0,0.99609375,-0.021484375,0.01953125,-0.001953125,0.0,0.0,0.0
74894626,59694,0,0.998046875,-0.0234375,0.021484375,-0.001953125,0.0,0.0,0.0
74895877,59695,0,1.00390625,-0.01953125,0.01953125,0.0,0.0,0.0,0.0
74897129,59696,0,1.005859375,-0.0234375,0.017578125,-0.005859375,0.0,0.0,0.0
74898380,59697,0,0.998046875,-0.0234375,0.021484375,-0.001953125,0.0,0.0,0.0
74899630,59698,0,1.00390625,-0.02734375,0.01953125,-0.0078125,0.0,0.0,0.0
74900881,59699,0,0.99609375,-0.0234375,0.017578125,-0.005859375,0.0,0.0,0.0
74902133,59700,0,1.0,-0.03125,0.015625,-0.015625,0.0,0.0,0.0
74903384,59701,0,1.005859375,-0.025390625,0.015625,-0.009765625,0.0,0.0,0.0
74904634,59702,0,1.0,-0.02734375,0.017578125,-0.009765625,0.0,0.0,0.0
74905886,59703,0,1.001953125,-0.025390625,0.009765625,-0.015625,0.0,0.0,0.0
74907136,59704,0,1.0078125,-0.02734375,0.017578125,-0.009765625,0.0,0.0,0.0
74908386,59705,0,1.00390625,-0.029296875,0.01171875,-0.017578125,0.0,0.0,0.0
74909638,59706,0,1.0,-0.025390625,0.01171875,-0.013671875,0.0,0.0,0.0
74910888,59707,0,1.00390625,-0.029296875,0.0,-0.029296875,0.0,0.0,0.0
74912139,59708,0,1.009765625,-0.025390625,0.01171875,-0.013671875,0.0,0.0,0.0
74913391,59709,0,0.998046875,-0.03125,0.005859375,-0.025390625,0.0,0.0,0.0
74914641,59710,0,1.001953125,-0.033203125,0.009765625,-0.0234375,0.0,0.0,0.0
74915892,59711,0,1.005859375,-0.033203125,0.0078125,-0.025390625,0.0,0.0,0.0
74917142,59712,0,1.005859375,-0.0234375,0.009765625,-0.013671875,0.0,0.0,0.0
74918393,59713,0,1.0,-0.03125,0.0078125,-0.0234375,0.0,0.0,0.0
74919645,59714,0,1.001953125,-0.029296875,0.0078125,-0.021484375,0.0,0.0,0.0
74920895,59715,0,1.001953125,-0.03515625,0.001953125,-0.033203125,0.0,0.0,0.0
74922147,59716,0,1.009765625,-0.03125,0.00390625,-0.02734375,0.0,0.0,0.0
74923397,59717,0,1.00390625,-0.03125,0.013671875,-0.017578125,0.0,0.0,0.0
74924649,59718,0,0.998046875,-0.029296875,0.01171875,-0.017578125,0.0,0.0,0.0
74925899,59719,0,1.0078125,-0.02734375,0.005859375,-0.021484375,0.0,0.0,0.0
74927149,59720,0,1.005859375,-0.025390625,0.0078125,-0.017578125,0.0,0.0,0.0
74928399,59721,0,1.0078125,-0.021484375,0.00390625,-0.017578125,0.0,0.0,0.0
74929650,59722,0,1.009765625,-0.02734375,0.01171875,-0.015625,0.0,0.0,0.0
74930902,59723,0,1.0078125,-0.0234375,0.0078125,-0.015625,0.0,0.0,0.0
74932153,59724,0,1.001953125,-0.03125,0.009765625,-0.021484375,0.0,0.0,0.0
74933404,59725,0,1.001953125,-0.03125,0.013671875,-0.017578125,0.0,0.0,0.0
74934654,59726,0,1.005859375,-0.029296875,0.009765625,-0.01953125,0.0,0.0,0.0
74935904,59727,0,0.998046875,-0.02734375,0.013671875,-0.013671875,0.0,0.0,0.0
74937155,59728,0,0.998046875,-0.02734375,0.017578125,-0.009765625,0.0,0.0,0.0
74938407,59729,0,1.005859375,-0.0234375,0.0078125,-0.015625,0.0,0.0,0.0
74939657,59730,0,1.0,-0.0234375,0.017578125,-0.005859375,0.0,0.0,0.0
74940909,59731,0,0.994140625,-0.021484375,0.017578125,-0.00390625,0.0,0.0,0.0
74942159,59732,0,0.994140625,-0.025390625,0.015625,-0.009765625,0.0,0.0,0.0
74943409,59733,0,1.0078125,-0.0234375,0.015625,-0.0078125,0.0,0.0,0.0
74944661,59734,0,0.99609375,-0.021484375,0.0078125,-0.013671875,0.0,0.0,0.0
74945911,59735,0,0.998046875,-0.02734375,0.0234375,-0.00390625,0.0,0.0,0.0
74947161,59736,0,1.0,-0.021484375,0.013671875,-0.0078125,0.0,0.0,0.0
74948411,59737,0,1.00390625,-0.01953125,0.0234375,0.00390625,0.0,0.0,0.0
74949663,59738,0,1.0078125,-0.0234375,0.017578125,-0.005859375,0.0,0.0,0.0
74950913,59739,0,1.005859375,-0.0234375,0.015625,-0.0078125,0.0,0.0,0.0
74952164,59740,0,1.005859375,-0.01953125,0.025390625,0.005859375,0.0,0.0,0.0
74953415,59741,0,1.00390625,-0.025390625,0.01953125,-0.005859375,0.0,0.0,0.0
74954666,59742,0,1.009765625,-0.025390625,0.009765625,-0.015625,0.0,0.0,0.0
74955916,59743,0,1.005859375,-0.0234375,0.017578125,-0.005859375,0.0,0.0,0.0
74957167,59744,0,1.005859375,-0.0234375,0.0234375,0.0,0.0,0.0,0.0
74958417,59745,0,1.001953125,-0.021484375,0.021484375,0.0,0.0,0.0,0.0
74959668,59746,0,1.005859375,-0.0234375,0.021484375,-0.001953125,0.0,0.0,0.0
74960920,59747,0,1.001953125,-0.021484375,0.01953125,-0.001953125,0.0,0.0,0.0
74962171,59748,0,1.009765625,-0.0234375,0.0234375,0.0,0.0,0.0,0.0
74963421,59749,0,1.001953125,-0.01953125,0.017578125,-0.001953125,0.0,0.0,0.0
74964672,59750,0,0.998046875,-0.02734375,0.0234375,-0.00390625,0.0,0.0,0.0
74965924,59751,0,1.0,-0.0234375,0.021484375,-0.001953125,0.0,0.0,0.0
74967174,59752,0,1.005859375,-0.01953125,0.025390625,0.005859375,0.0,0.0,0.0
74968425,59753,0,1.0078125,-0.025390625,0.015625,-0.009765625,0.0,0.0,0.0
74969677,59754,0,1.00390625,-0.0234375,0.025390625,0.001953125,0.0,0.0,0.0
74970927,59755,0,1.001953125,-0.021484375,0.0234375,0.001953125,0.0,0.0,0.0
74972177,59756,0,0.994140625,-0.02734375,0.01171875,-0.015625,0.0,0.0,0.0
74973429,59757,0,0.99609375,-0.025390625,0.01171875,-0.013671875,0.0,0.0,0.0
74974679,59758,0,1.005859375,-0.02734375,0.01953125,-0.0078125,0.0,0.0,0.0
74975931,59759,0,1.005859375,-0.02734375,0.017578125,-0.009765625,0.0,0.0,0.0
74977181,59760,0,0.998046875,-0.02734375,0.015625,-0.01171875,0.0,0.0,0.0
74978431,59761,0,1.0078125,-0.02734375,0.01953125,-0.0078125,0.0,0.0,0.0
74979683,59762,0,1.00390625,-0.033203125,0.017578125,-0.015625,0.0,0.0,0.0
74980933,59763,0,1.001953125,-0.03125,0.017578125,-0.013671875,0.0,0.0,0.0
74982183,59764,0,1.005859375,-0.025390625,0.015625,-0.009765625,0.0,0.0,0.0
74983434,59765,0,1.00390625,-0.029296875,0.01171875,-0.017578125,0.0,0.0,0.0
74984685,59766,0,1.005859375,-0.03125,0.013671875,-0.017578125,0.0,0.0,0.0
74985936,59767,0,1.00390625,-0.033203125,0.01953125,-0.013671875,0.0,0.0,0.0
74987186,59768,0,1.005859375,-0.03125,0.01171875,-0.01953125,0.0,0.0,0.0
74988437,59769,0,1.005859375,-0.02734375,0.015625,-0.01171875,0.0,0.0,0.0
74989687,59770,0,1.001953125,-0.03125,0.013671875,-0.017578125,0.0,0.0,0.0
74990937,59771,0,0.998046875,-0.029296875,0.013671875,-0.015625,0.0,0.0,0.0
74992188,59772,0,1.0078125,-0.03125,0.015625,-0.015625,0.0,0.0,0.0
74993440,59773,0,0.998046875,-0.03125,0.015625,-0.015625,0.0,0.0,0.0
74994690,59774,0,1.0078125,-0.02734375,0.0078125,-0.01953125,0.0,0.0,0.0
74995942,59775,0,1.009765625,-0.02734375,0.01171875,-0.015625,0.0,0.0,0.0
74997193,59776,0,1.005859375,-0.033203125,0.01171875,-0.021484375,0.0,0.0,0.0
74998445,59777,0,1.005859375,-0.021484375,0.0078125,-0.013671875,0.0,0.0,0.0
74999695,59778,0,1.00390625,-0.029296875,0.013671875,-0.015625,0.0,0.0,0.0
75000947,59779,0,1.01171875,-0.03125,0.015625,-0.015625,0.0,0.0,0.0
75002198,59780,0,0.998046875,-0.029296875,0.01953125,-0.009765625,0.0,0.0,0.0
75003450,59781,0,0.998046875,-0.03125,0.01953125,-0.01171875,0.0,0.0,0.0
75004700,59782,0,1.00390625,-0.02734375,0.013671875,-0.013671875,0.0,0.0,0.0
75005952,59783,0,1.00390625,-0.029296875,0.015625,-0.013671875,0.0,0.0,0.0
75007203,59784,0,1.00390625,-0.0234375,0.01953125,-0.00390625,0.0,0.0,0.0
75008454,59785,0,1.001953125,-0.025390625,0.021484375,-0.00390625,0.0,0.0,0.0
75009705,59786,0,1.005859375,-0.02734375,0.015625,-0.01171875,0.0,0.0,0.0
75010957,59787,0,1.0,-0.02734375,0.015625,-0.01171875,0.0,0.0,0.0
75012207,59788,0,1.0,-0.025390625,0.017578125,-0.0078125,0.0,0.0,0.0
75013459,59789,0,1.001953125,-0.029296875,0.01171875,-0.017578125,0.0,0.0,0.0
75014709,59790,0,1.00390625,-0.0234375,0.017578125,-0.005859375,0.0,0.0,0.0
75015959,59791,0,1.00390625,-0.025390625,0.01953125,-0.005859375,0.0,0.0,0.0
75017209,59792,0,1.009765625,-0.025390625,0.013671875,-0.01171875,0.0,0.0,0.0
75018459,59793,0,1.005859375,-0.02734375,0.025390625,-0.001953125,0.0,0.0,0.0
75019711,59794,0,1.005859375,-0.021484375,0.013671875,-0.0078125,0.0,0.0,0.0
75020961,59795,0,1.00390625,-0.0234375,0.017578125,-0.005859375,0.0,0.0,0.0
75022213,59796,0,1.00390625,-0.025390625,0.01171875,-0.013671875,0.0,0.0,0.0
75023464,59797,0,0.994140625,-0.021484375,0.0234375,0.001953125,0.0,0.0,0.0
75024715,59798,0,0.998046875,-0.02734375,0.025390625,-0.001953125,0.0,0.0,0.0
75025966,59799,0,1.005859375,-0.02734375,0.01171875,-0.015625,0.0,0.0,0.0
75027216,59800,0,1.005859375,-0.025390625,0.017578125,-0.0078125,0.0,0.0,0.0
75028467,59801,0,1.005859375,-0.0234375,0.01953125,-0.00390625,0.0,0.0,0.0
75029718,59802,0,1.005859375,-0.0234375,0.013671875,-0.009765625,0.0,0.0,0.0
75030968,59803,0,1.001953125,-0.0234375,0.015625,-0.0078125,0.0,0.0,0.0
75032219,59804,0,1.0,-0.01953125,0.013671875,-0.005859375,0.0,0.0,0.0
75033470,59805,0,1.001953125,-0.029296875,0.017578125,-0.01171875,0.0,0.0,0.0
75034721,59806,0,1.0,-0.02734375,0.017578125,-0.009765625,0.0,0.0,0.0
75035971,59807,0,1.001953125,-0.021484375,0.013671875,-0.0078125,0.0,0.0,0.0
75037223,59808,0,1.00390625,-0.021484375,0.009765625,-0.01171875,0.0,0.0,0.0
75038473,59809,0,1.009765625,-0.025390625,0.01171875,-0.013671875,0.0,0.0,0.0
75039723,59810,0,1.0078125,-0.0234375,0.009765625,-0.013671875,0.0,0.0,0.0
75040975,59811,0,1.001953125,-0.02734375,0.015625,-0.01171875,0.0,0.0,0.0
75042226,59812,0,1.00390625,-0.0234375,0.013671875,-0.009765625,0.0,0.0,0.0
75043476,59813,0,0.998046875,-0.0234375,0.01171875,-0.01171875,0.0,0.0,0.0
75044728,59814,0,1.0078125,-0.02734375,0.0078125,-0.01953125,0.0,0.0,0.0
75045979,59815,0,1.0,-0.025390625,0.017578125,-0.0078125,0.0,0.0,0.0
75047229,59816,0,0.994140625,-0.029296875,0.009765625,-0.01953125,0.0,0.0,0.0
75048481,59817,0,1.01953125,-0.029296875,0.009765625,-0.01953125,0.0,0.0,0.0
75049731,59818,0,1.0078125,-0.03125,0.013671875,-0.017578125,0.0,0.0,0.0
75050981,59819,0,1.009765625,-0.033203125,0.01171875,-0.021484375,0.0,0.0,0.0
75052232,59820,0,1.009765625,-0.03125,0.01171875,-0.01953125,0.0,0.0,0.0
75053483,59821,0,1.005859375,-0.03515625,0.013671875,-0.021484375,0.0,0.0,0.0
75054734,59822,0,1.005859375,-0.03125,0.015625,-0.015625,0.0,0.0,0.0
75055986,59823,0,1.00390625,-0.03515625,0.009765625,-0.025390625,0.0,0.0,0.0
75057236,59824,0,1.001953125,-0.037109375,0.015625,-0.021484375,0.0,0.0,0.0
75058486,59825,0,1.0078125,-0.03125,0.01171875,-0.01953125,0.0,0.0,0.0
75059737,59826,0,1.005859375,-0.03515625,0.013671875,-0.021484375,0.0,0.0,0.0
75060987,59827,0,1.0078125,-0.037109375,0.0078125,-0.029296875,0.0,0.0,0.0
75062238,59828,0,1.0078125,-0.033203125,0.009765625,-0.0234375,0.0,0.0,0.0
75063489,59829,0,1.00390625,-0.03125,0.015625,-0.015625,0.0,0.0,0.0
75064740,59830,0,1.00390625,-0.03125,0.01171875,-0.01953125,0.0,0.0,0.0
75065991,59831,0,1.009765625,-0.033203125,0.0078125,-0.025390625,0.0,0.0,0.0
75067241,59832,0,1.0078125,-0.02734375,0.013671875,-0.013671875,0.0,0.0,0.0
75068492,59833,0,1.001953125,-0.029296875,0.01953125,-0.009765625,0.0,0.0,0.0
75069744,59834,0,1.005859375,-0.029296875,0.015625,-0.013671875,0.0,0.0,0.0
75070994,59835,0,1.001953125,-0.03515625,0.013671875,-0.021484375,0.0,0.0,0.0
75072245,59836,0,1.0078125,-0.03125,0.025390625,-0.005859375,0.0,0.0,0.0
75073496,59837,0,1.0,-0.033203125,0.0234375,-0.009765625,0.0,0.0,0.0
75074747,59838,0,0.998046875,-0.033203125,0.015625,-0.017578125,0.0,0.0,0.0
75075998,59839,0,1.00390625,-0.03125,0.009765625,-0.021484375,0.0,0.0,0.0
75077249,59840,0,1.001953125,-0.02734375,0.01953125,-0.0078125,0.0,0.0,0.0
75078499,59841,0,1.009765625,-0.01953125,0.0078125,-0.01171875,0.0,0.0,0.0
75079751,59842,0,1.005859375,-0.025390625,0.01953125,-0.005859375,0.0,0.0,0.0
75081002,59843,0,1.005859375,-0.0234375,0.021484375,-0.001953125,0.0,0.0,0.0
75082253,59844,0,1.0078125,-0.021484375,0.013671875,-0.0078125,0.0,0.0,0.0
75083503,59845,0,1.005859375,-0.021484375,0.005859375,-0.015625,0.0,0.0,0.0
75084755,59846,0,1.005859375,-0.025390625,0.015625,-0.009765625,0.0,0.0,0.0
75086005,59847,0,1.009765625,-0.01953125,0.01171875,-0.0078125,0.0,0.0,0.0
75087256,59848,0,1.0078125,-0.01953125,0.015625,-0.00390625,0.0,0.0,0.0
75088506,59849,0,1.00390625,-0.0234375,0.015625,-0.0078125,0.0,0.0,0.0
75089757,59850,0,1.0,-0.017578125,0.015625,-0.001953125,0.0,0.0,0.0
75091008,59851,0,0.998046875,-0.01953125,0.013671875,-0.005859375,0.0,0.0,0.0
75092258,59852,0,1.005859375,-0.01953125,0.017578125,-0.001953125,0.0,0.0,0.0
75093508,59853,0,1.00390625,-0.021484375,0.015625,-0.005859375,0.0,0.0,0.0
75094759,59854,0,1.00390625,-0.017578125,0.01171875,-0.005859375,0.0,0.0,0.0
75096009,59855,0,1.009765625,-0.01953125,0.015625,-0.00390625,0.0,0.0,0.0
75097259,59856,0,1.005859375,-0.0234375,0.015625,-0.0078125,0.0,0.0,0.0
75098510,59857,0,1.0078125,-0.021484375,0.01171875,-0.009765625,0.0,0.0,0.0
75099762,59858,0,1.001953125,-0.0234375,0.0234375,0.0,0.0,0.0,0.0
75101012,59859,0,1.001953125,-0.01953125,0.025390625,0.005859375,0.0,0.0,0.0
75102271,59860,0,0.998046875,-0.01953125,0.017578125,-0.001953125,0.0,0.0,0.0
75103521,59861,0,1.001953125,-0.021484375,0.01953125,-0.001953125,0.0,0.0,0.0
75104773,59862,0,1.00390625,-0.0234375,0.013671875,-0.009765625,0.0,0.0,0.0
75106023,59863,0,1.01171875,-0.02734375,0.017578125,-0.009765625,0.0,0.0,0.0
75107274,59864,0,0.998046875,-0.0234375,0.009765625,-0.013671875,0.0,0.0,0.0
75108525,59865,0,1.0078125,-0.02734375,0.015625,-0.01171875,0.0,0.0,0.0
75109776,59866,0,1.00390625,-0.025390625,0.015625,-0.009765625,0.0,0.0,0.0
75111026,59867,0,0.998046875,-0.0234375,0.013671875,-0.009765625,0.0,0.0,0.0
75112276,59868,0,1.005859375,-0.01953125,0.017578125,-0.001953125,0.0,0.0,0.0
75113527,59869,0,1.001953125,-0.02734375,0.009765625,-0.017578125,0.0,0.0,0.0
75114778,59870,0,1.00390625,-0.025390625,0.01171875,-0.013671875,0.0,0.0,0.0
75116029,59871,0,1.00390625,-0.029296875,0.017578125,-0.01171875,0.0,0.0,0.0
75117280,59872,0,0.994140625,-0.0234375,0.01171875,-0.01171875,0.0,0.0,0.0
75118531,59873,0,1.00390625,-0.02734375,0.017578125,-0.009765625,0.0,0.0,0.0
75119783,59874,0,0.998046875,-0.025390625,0.015625,-0.009765625,0.0,0.0,0.0
75121034,59875,0,1.0,-0.03125,0.021484375,-0.009765625,0.0,0.0,0.0
75122286,59876,0,1.0,-0.029296875,0.01953125,-0.009765625,0.0,0.0,0.0
75123537,59877,0,1.001953125,-0.025390625,0.01171875,-0.013671875,0.0,0.0,0.0
75124789,59878,0,1.005859375,-0.03515625,0.01171875,-0.0234375,0.0,0.0,0.0
75126039,59879,0,1.0,-0.029296875,0.01171875,-0.017578125,0.0,0.0,0.0
75127289,59880,0,0.990234375,-0.033203125,0.01953125,-0.013671875,0.0,0.0,0.0
75128541,59881,0,0.998046875,-0.03125,0.013671875,-0.017578125,0.0,0.0,0.0
75129792,59882,0,1.00390625,-0.033203125,0.01953125,-0.013671875,0.0,0.0,0.0
75131044,59883,0,1.013671875,-0.033203125,0.0234375,-0.009765625,0.0,0.0,0.0
75132294,59884,0,1.00390625,-0.033203125,0.017578125,-0.015625,0.0,0.0,0.0
75133544,59885,0,1.00390625,-0.03125,0.01953125,-0.01171875,0.0,0.0,0.0
75134795,59886,0,1.00390625,-0.033203125,0.021484375,-0.01171875,0.0,0.0,0.0
75136045,59887,0,1.005859375,-0.033203125,0.017578125,-0.015625,0.0,0.0,0.0
75137295,59888,0,1.005859375,-0.03125,0.013671875,-0.017578125,0.0,0.0,0.0
75138546,59889,0,0.998046875,-0.029296875,0.021484375,-0.0078125,0.0,0.0,0.0
75139797,59890,0,0.998046875,-0.02734375,0.017578125,-0.009765625,0.0,0.0,0.0
75141048,59891,0,1.00390625,-0.033203125,0.015625,-0.017578125,0.0,0.0,0.0
75142299,59892,0,1.00390625,-0.02734375,0.01953125,-0.0078125,0.0,0.0,0.0
75143550,59893,0,1.0,-0.03125,0.015625,-0.015625,0.0,0.0,0.0
75144800,59894,0,1.00390625,-0.025390625,0.017578125,-0.0078125,0.0,0.0,0.0
75146052,59895,0,1.001953125,-0.025390625,0.0234375,-0.001953125,0.0,0.0,0.0
75147303,59896,0,1.001953125,-0.02734375,0.015625,-0.01171875,0.0,0.0,0.0
75148554,59897,0,1.009765625,-0.029296875,0.015625,-0.013671875,0.0,0.0,0.0
75149805,59898,0,1.00390625,-0.025390625,0.015625,-0.009765625,0.0,0.0,0.0
75151057,59899,0,1.005859375,-0.025390625,0.015625,-0.009765625,0.0,0.0,0.0
75152308,59900,0,1.00390625,-0.017578125,0.015625,-0.001953125,0.0,0.0,0.0
75153560,59901,0,1.005859375,-0.02734375,0.015625,-0.01171875,0.0,0.0,0.0
75154811,59902,0,1.00390625,-0.02734375,0.01171875,-0.015625,0.0,0.0,0.0
75156063,59903,0,1.001953125,-0.0234375,0.013671875,-0.009765625,0.0,0.0,0.0
75157314,59904,0,1.009765625,-0.025390625,0.01953125,-0.005859375,0.0,0.0,0.0
75158565,59905,0,1.013671875,-0.02734375,0.01953125,-0.0078125,0.0,0.0,0.0
75159816,59906,0,1.001953125,-0.0234375,0.01171875,-0.01171875,0.0,0.0,0.0
75161066,59907,0,1.00390625,-0.021484375,0.015625,-0.005859375,0.0,0.0,0.0
75162318,59908,0,1.0,-0.021484375,0.009765625,-0.01171875,0.0,0.0,0.0
75163569,59909,0,1.0,-0.021484375,0.017578125,-0.00390625,0.0,0.0,0.0
75164819,59910,0,1.005859375,-0.021484375,0.01171875,-0.009765625,0.0,0.0,0.0
75166070,59911,0,1.00390625,-0.021484375,0.017578125,-0.00390625,0.0,0.0,0.0
75167321,59912,0,1.005859375,-0.0234375,0.017578125,-0.005859375,0.0,0.0,0.0
75168572,59913,0,1.001953125,-0.021484375,0.013671875,-0.0078125,0.0,0.0,0.0
75169823,59914,0,1.001953125,-0.02734375,0.015625,-0.01171875,0.0,0.0,0.0
75171074,59915,0,1.005859375,-0.021484375,0.01171875,-0.009765625,0.0,0.0,0.0
75172325,59916,0,1.001953125,-0.025390625,0.01171875,-0.013671875,0.0,0.0,0.0
75173575,59917,0,1.0,-0.025390625,0.017578125,-0.0078125,0.0,0.0,0.0
75174825,59918,0,1.005859375,-0.0234375,0.013671875,-0.009765625,0.0,0.0,0.0
75176076,59919,0,1.005859375,-0.025390625,0.013671875,-0.01171875,0.0,0.0,0.0
75177326,59920,0,0.998046875,-0.025390625,0.01953125,-0.005859375,0.0,0.0,0.0
75178577,59921,0,1.005859375,-0.021484375,0.01953125,-0.001953125,0.0,0.0,0.0
75179828,59922,0,1.015625,-0.029296875,0.017578125,-0.01171875,0.0,0.0,0.0
75181078,59923,0,1.009765625,-0.02734375,0.017578125,-0.009765625,0.0,0.0,0.0
75182329,59924,0,1.0,-0.021484375,0.01953125,-0.001953125,0.0,0.0,0.0
75183581,59925,0,1.001953125,-0.025390625,0.009765625,-0.015625,0.0,0.0,0.0
75184833,59926,0,1.009765625,-0.03125,0.009765625,-0.021484375,0.0,0.0,0.0
75186083,59927,0,0.990234375,-0.029296875,0.017578125,-0.01171875,0.0,0.0,0.0
75187333,59928,0,1.0078125,-0.029296875,0.013671875,-0.015625,0.0,0.0,0.0
75188584,59929,0,1.001953125,-0.029296875,0.015625,-0.013671875,0.0,0.0,0.0
75189835,59930,0,1.0,-0.029296875,0.015625,-0.013671875,0.0,0.0,0.0
75191085,59931,0,1.0078125,-0.02734375,0.013671875,-0.013671875,0.0,0.0,0.0
75192336,59932,0,1.009765625,-0.02734375,0.015625,-0.01171875,0.0,0.0,0.0
75193587,59933,0,1.005859375,-0.03125,0.013671875,-0.017578125,0.0,0.0,0.0
75194838,59934,0,1.0078125,-0.029296875,0.01953125,-0.009765625,0.0,0.0,0.0
75196090,59935,0,1.0078125,-0.02734375,0.01953125,-0.0078125,0.0,0.0,0.0
75197341,59936,0,1.005859375,-0.02734375,0.017578125,-0.009765625,0.0,0.0,0.0
75198592,59937,0,1.00390625,-0.029296875,0.015625,-0.013671875,0.0,0.0,0.0
75199844,59938,0,1.00390625,-0.029296875,0.009765625,-0.01953125,0.0,0.0,0.0
75201095,59939,0,1.001953125,-0.025390625,0.017578125,-0.0078125,0.0,0.0,0.0
75202346,59940,0,1.0078125,-0.03125,0.015625,-0.015625,0.0,0.0,0.0
75203597,59941,0,1.005859375,-0.025390625,0.017578125,-0.0078125,0.0,0.0,0.0
75204849,59942,0,1.001953125,-0.025390625,0.013671875,-0.01171875,0.0,0.0,0.0
75206099,59943,0,0.998046875,-0.025390625,0.017578125,-0.0078125,0.0,0.0,0.0
75207351,59944,0,0.9921875,-0.02734375,0.01171875,-0.015625,0.0,0.0,0.0
75208602,59945,0,1.005859375,-0.03125,0.015625,-0.015625,0.0,0.0,0.0
75209854,59946,0,1.013671875,-0.03125,0.021484375,-0.009765625,0.0,0.0,0.0
75211104,59947,0,1.009765625,-0.0234375,0.01171875,-0.01171875,0.0,0.0,0.0
75212354,59948,0,1.0078125,-0.021484375,0.01171875,-0.009765625,0.0,0.0,0.0
75213605,59949,0,0.99609375,-0.021484375,0.013671875,-0.0078125,0.0,0.0,0.0
75214855,59950,0,1.0078125,-0.0234375,0.017578125,-0.005859375,0.0,0.0,0.0
75216107,59951,0,1.005859375,-0.01953125,0.01953125,0.0,0.0,0.0,0.0
75217358,59952,0,1.00390625,-0.021484375,0.015625,-0.005859375,0.0,0.0,0.0
75218609,59953,0,1.0,-0.025390625,0.01171875,-0.013671875,0.0,0.0,0.0
75219859,59954,0,1.001953125,-0.0234375,0.0234375,0.0,0.0,0.0,0.0
75221111,59955,0,1.00390625,-0.021484375,0.013671875,-0.0078125,0.0,0.0,0.0
75222362,59956,0,1.0,-0.025390625,0.009765625,-0.015625,0.0,0.0,0.0
75223613,59957,0,1.005859375,-0.025390625,0.01171875,-0.013671875,0.0,0.0,0.0
75224865,59958,0,1.00390625,-0.0234375,0.013671875,-0.009765625,0.0,0.0,0.0
75226115,59959,0,1.0,-0.0234375,0.009765625,-0.013671875,0.0,0.0,0.0
75227365,59960,0,1.005859375,-0.01953125,0.017578125,-0.001953125,0.0,0.0,0.0
75228617,59961,0,1.001953125,-0.02734375,0.013671875,-0.013671875,0.0,0.0,0.0
75229867,59962,0,1.009765625,-0.03125,0.009765625,-0.021484375,0.0,0.0,0.0
75231118,59963,0,1.001953125,-0.01953125,0.01171875,-0.0078125,0.0,0.0,0.0
75232369,59964,0,1.001953125,-0.029296875,0.015625,-0.013671875,0.0,0.0,0.0
75233620,59965,0,1.00390625,-0.021484375,0.013671875,-0.0078125,0.0,0.0,0.0
75234871,59966,0,1.009765625,-0.03125,0.005859375,-0.025390625,0.0,0.0,0.0
75236123,59967,0,1.0078125,-0.01953125,0.013671875,-0.005859375,0.0,0.0,0.0
75237374,59968,0,0.998046875,-0.0234375,0.01953125,-0.00390625,0.0,0.0,0.0
75238624,59969,0,1.009765625,-0.025390625,0.0234375,-0.001953125,0.0,0.0,0.0
75239875,59970,0,0.998046875,-0.0234375,0.01953125,-0.00390625,0.0,0.0,0.0
75241125,59971,0,1.005859375,-0.02734375,0.017578125,-0.009765625,0.0,0.0,0.0
75242375,59972,0,1.00390625,-0.025390625,0.013671875,-0.01171875,0.0,0.0,0.0
75243626,59973,0,1.0078125,-0.02734375,0.01953125,-0.0078125,0.0,0.0,0.0
75244877,59974,0,1.00390625,-0.029296875,0.017578125,-0.01171875,0.0,0.0,0.0
75246129,59975,0,1.001953125,-0.03125,0.015625,-0.015625,0.0,0.0,0.0
75247380,59976,0,1.0078125,-0.025390625,0.017578125,-0.0078125,0.0,0.0,0.0
75248630,59977,0,1.005859375,-0.03125,0.015625,-0.015625,0.0,0.0,0.0
75249881,59978,0,1.0078125,-0.02734375,0.015625,-0.01171875,0.0,0.0,0.0
75251133,59979,0,1.00390625,-0.029296875,0.013671875,-0.015625,0.0,0.0,0.0
75252384,59980,0,0.998046875,-0.033203125,0.01953125,-0.013671875,0.0,0.0,0.0
75253634,59981,0,1.00390625,-0.029296875,0.017578125,-0.01171875,0.0,0.0,0.0
75254886,59982,0,0.99609375,-0.02734375,0.01171875,-0.015625,0.0,0.0,0.0
75256136,59983,0,1.01171875,-0.029296875,0.017578125,-0.01171875,0.0,0.0,0.0
75257386,59984,0,1.001953125,-0.029296875,0.01953125,-0.009765625,0.0,0.0,0.0
75258638,59985,0,1.001953125,-0.029296875,0.017578125,-0.01171875,0.0,0.0,0.0
75259888,59986,0,0.99609375,-0.037109375,0.015625,-0.021484375,0.0,0.0,0.0
75261139,59987,0,1.00390625,-0.03125,0.015625,-0.015625,0.0,0.0,0.0
75262391,59988,0,1.001953125,-0.029296875,0.01953125,-0.009765625,0.0,0.0,0.0
75263641,59989,0,1.001953125,-0.033203125,0.017578125,-0.015625,0.0,0.0,0.0
75264892,59990,0,1.005859375,-0.02734375,0.025390625,-0.001953125,0.0,0.0,0.0
75266142,59991,0,1.0078125,-0.03515625,0.02734375,-0.0078125,0.0,0.0,0.0
75267393,59992,0,1.0078125,-0.033203125,0.01953125,-0.013671875,0.0,0.0,0.0
75268645,59993,0,1.009765625,-0.029296875,0.017578125,-0.01171875,0.0,0.0,0.0
75269895,59994,0,1.001953125,-0.029296875,0.013671875,-0.015625,0.0,0.0,0.0
75271147,59995,0,1.00390625,-0.03125,0.013671875,-0.017578125,0.0,0.0,0.0
75272397,59996,0,1.00390625,-0.029296875,0.015625,-0.013671875,0.0,0.0,0.0
75273649,59997,0,1.0078125,-0.03125,0.01953125,-0.01171875,0.0,0.0,0.0
75274899,59998,0,1.0,-0.025390625,0.015625,-0.009765625,0.0,0.0,0.0
75276149,59999,0,1.0078125,-0.0234375,0.021484375,-0.001953125,0.0,0.0,0.0
75277399,60000,0,1.005859375,-0.02734375,0.013671875,-0.013671875,0.0,0.0,0.0
75278650,60001,0,1.005859375,-0.025390625,0.013671875,-0.01171875,0.0,0.0,0.0
75279902,60002,0,1.0078125,-0.02734375,0.013671875,-0.013671875,0.0,0.0,0.0
75281153,60003,0,1.0,-0.0234375,0.017578125,-0.005859375,0.0,0.0,0.0
75282404,60004,0,1.0078125,-0.01953125,0.017578125,-0.001953125,0.0,0.0,0.0
75283654,60005,0,1.001953125,-0.025390625,0.005859375,-0.01953125,0.0,0.0,0.0
75284904,60006,0,1.009765625,-0.0234375,0.01171875,-0.01171875,0.0,0.0,0.0
75286155,60007,0,1.001953125,-0.02734375,0.01171875,-0.015625,0.0,0.0,0.0
75287407,60008,0,0.998046875,-0.021484375,0.01953125,-0.001953125,0.0,0.0,0.0
75288657,60009,0,0.99609375,-0.0234375,0.017578125,-0.005859375,0.0,0.0,0.0
75289909,60010,0,1.0,-0.0234375,0.01953125,-0.00390625,0.0,0.0,0.0
75291159,60011,0,1.0,-0.03125,0.013671875,-0.017578125,0.0,0.0,0.0
75292409,60012,0,1.00390625,-0.025390625,0.0234375,-0.001953125,0.0,0.0,0.0
75293661,60013,0,1.00390625,-0.025390625,0.01953125,-0.005859375,0.0,0.0,0.0
75294911,60014,0,1.001953125,-0.025390625,0.015625,-0.009765625,0.0,0.0,0.0
75296161,60015,0,1.005859375,-0.0234375,0.015625,-0.0078125,0.0,0.0,0.0
75297411,60016,0,1.01171875,-0.021484375,0.015625,-0.005859375,0.0,0.0,0.0
75298663,60017,0,1.0,-0.021484375,0.015625,-0.005859375,0.0,0.0,0.0
75299913,60018,0,1.001953125,-0.02734375,0.01171875,-0.015625,0.0,0.0,0.0
75301164,60019,0,1.005859375,-0.02734375,0.013671875,-0.013671875,0.0,0.0,0.0
75302415,60020,0,1.00390625,-0.0234375,0.021484375,-0.001953125,0.0,0.0,0.0
75303666,60021,0,1.001953125,-0.025390625,0.013671875,-0.01171875,0.0,0.0,0.0
75304916,60022,0,1.005859375,-0.025390625,0.013671875,-0.01171875,0.0,0.0,0.0
75306167,60023,0,1.0078125,-0.029296875,0.0078125,-0.021484375,0.0,0.0,0.0
75307417,60024,0,1.0,-0.0234375,0.01171875,-0.01171875,0.0,0.0,0.0
75308668,60025,0,1.0,-0.021484375,0.015625,-0.005859375,0.0,0.0,0.0
75309920,60026,0,0.998046875,-0.02734375,0.01953125,-0.0078125,0.0,0.0,0.0
75311171,60027,0,1.005859375,-0.025390625,0.01953125,-0.005859375,0.0,0.0,0.0
75312421,60028,0,1.00390625,-0.03125,0.01953125,-0.01171875,0.0,0.0,0.0
75313672,60029,0,1.013671875,-0.029296875,0.01953125,-0.009765625,0.0,0.0,0.0
75314924,60030,0,0.998046875,-0.02734375,0.01953125,-0.0078125,0.0,0.0,0.0
75316174,60031,0,1.0,-0.02734375,0.01953125,-0.0078125,0.0,0.0,0.0
75317425,60032,0,1.00390625,-0.0234375,0.017578125,-0.005859375,0.0,0.0,0.0
75318677,60033,0,1.00390625,-0.025390625,0.01953125,-0.005859375,0.0,0.0,0.0
75319927,60034,0,1.0,-0.029296875,0.013671875,-0.015625,0.0,0.0,0.0
75321177,60035,0,1.00390625,-0.033203125,0.013671875,-0.01953125,0.0,0.0,0.0
75322429,60036,0,1.01171875,-0.029296875,0.009765625,-0.01953125,0.0,0.0,0.0
75323679,60037,0,1.001953125,-0.03125,0.013671875,-0.017578125,0.0,0.0,0.0
75324931,60038,0,1.0078125,-0.02734375,0.015625,-0.01171875,0.0,0.0,0.0
75326181,60039,0,1.0,-0.02734375,0.013671875,-0.013671875,0.0,0.0,0.0
75327431,60040,0,1.001953125,-0.03125,0.017578125,-0.013671875,0.0,0.0,0.0
75328683,60041,0,1.00390625,-0.029296875,0.01953125,-0.009765625,0.0,0.0,0.0
75329933,60042,0,0.998046875,-0.025390625,0.017578125,-0.0078125,0.0,0.0,0.0
75331183,60043,0,1.005859375,-0.03125,0.017578125,-0.013671875,0.0,0.0,0.0
75332434,60044,0,0.998046875,-0.02734375,0.013671875,-0.013671875,0.0,0.0,0.0
75333685,60045,0,1.001953125,-0.02734375,0.01171875,-0.015625,0.0,0.0,0.0
75334936,60046,0,1.001953125,-0.029296875,0.009765625,-0.01953125,0.0,0.0,0.0
75336186,60047,0,1.001953125,-0.02734375,0.01953125,-0.0078125,0.0,0.0,0.0
75337437,60048,0,1.0078125,-0.029296875,0.021484375,-0.0078125,0.0,0.0,0.0
75338687,60049,0,1.005859375,-0.02734375,0.009765625,-0.017578125,0.0,0.0,0.0
75339937,60050,0,0.998046875,-0.0234375,0.01953125,-0.00390625,0.0,0.0,0.0
75341188,60051,0,0.998046875,-0.0234375,0.017578125,-0.005859375,0.0,0.0,0.0
75342440,60052,0,1.0078125,-0.03125,0.013671875,-0.017578125,0.0,0.0,0.0
75343690,60053,0,1.009765625,-0.025390625,0.01171875,-0.013671875,0.0,0.0,0.0
75344942,60054,0,0.998046875,-0.021484375,0.015625,-0.005859375,0.0,0.0,0.0
75346193,60055,0,1.017578125,-0.025390625,0.00390625,-0.021484375,0.0,0.0,0.0
75347445,60056,0,1.0078125,-0.0234375,0.017578125,-0.005859375,0.0,0.0,0.0
75348695,60057,0,1.00390625,-0.0234375,0.017578125,-0.005859375,0.0,0.0,0.0
75349947,60058,0,0.998046875,-0.025390625,0.01953125,-0.005859375,0.0,0.0,0.0
75351198,60059,0,1.001953125,-0.025390625,0.015625,-0.009765625,0.0,0.0,0.0
75352450,60060,0,1.00390625,-0.025390625,0.013671875,-0.01171875,0.0,0.0,0.0
75353700,60061,0,1.009765625,-0.025390625,0.01171875,-0.013671875,0.0,0.0,0.0
75354952,60062,0,1.005859375,-0.021484375,0.009765625,-0.01171875,0.0,0.0,0.0
75356203,60063,0,0.99609375,-0.025390625,0.01171875,-0.013671875,0.0,0.0,0.0
75357454,60064,0,1.0,-0.025390625,0.015625,-0.009765625,0.0,0.0,0.0
75358705,60065,0,1.0078125,-0.0234375,0.01171875,-0.01171875,0.0,0.0,0.0
75359957,60066,0,1.001953125,-0.0234375,0.013671875,-0.009765625,0.0,0.0,0.0
75361207,60067,0,1.0078125,-0.02734375,0.021484375,-0.005859375,0.0,0.0,0.0
75362459,60068,0,1.005859375,-0.02734375,0.015625,-0.01171875,0.0,0.0,0.0
75363709,60069,0,1.01171875,-0.03125,0.015625,-0.015625,0.0,0.0,0.0
75364959,60070,0,1.00390625,-0.02734375,0.005859375,-0.021484375,0.0,0.0,0.0
75366209,60071,0,1.001953125,-0.029296875,0.017578125,-0.01171875,0.0,0.0,0.0
75367459,60072,0,1.0078125,-0.021484375,0.015625,-0.005859375,0.0,0.0,0.0
75368711,60073,0,0.998046875,-0.025390625,0.015625,-0.009765625,0.0,0.0,0.0
75369961,60074,0,1.00390625,-0.03125,0.005859375,-0.025390625,0.0,0.0,0.0
75371213,60075,0,1.00390625,-0.021484375,0.01171875,-0.009765625,0.0,0.0,0.0
75372464,60076,0,0.99609375,-0.025390625,0.013671875,-0.01171875,0.0,0.0,0.0
75373715,60077,0,1.015625,-0.02734375,0.013671875,-0.013671875,0.0,0.0,0.0
75374966,60078,0,1.0,-0.025390625,0.01171875,-0.013671875,0.0,0.0,0.0
75376216,60079,0,1.0,-0.025390625,0.01953125,-0.005859375,0.0,0.0,0.0
75377467,60080,0,0.998046875,-0.029296875,0.017578125,-0.01171875,0.0,0.0,0.0
75378718,60081,0,1.001953125,-0.025390625,0.0234375,-0.001953125,0.0,0.0,0.0
75379968,60082,0,1.0078125,-0.021484375,0.021484375,0.0,0.0,0.0,0.0
75381219,60083,0,1.00390625,-0.02734375,0.01953125,-0.0078125,0.0,0.0,0.0
75382470,60084,0,1.009765625,-0.02734375,0.021484375,-0.005859375,0.0,0.0,0.0
75383721,60085,0,1.00390625,-0.029296875,0.015625,-0.013671875,0.0,0.0,0.0
75384971,60086,0,1.005859375,-0.02734375,0.017578125,-0.009765625,0.0,0.0,0.0
75386223,60087,0,1.0,-0.025390625,0.01171875,-0.013671875,0.0,0.0,0.0
75387473,60088,0,1.00390625,-0.029296875,0.017578125,-0.01171875,0.0,0.0,0.0
75388723,60089,0,0.998046875,-0.029296875,0.015625,-0.013671875,0.0,0.0,0.0
75389975,60090,0,1.005859375,-0.02734375,0.017578125,-0.009765625,0.0,0.0,0.0
75391226,60091,0,1.005859375,-0.02734375,0.005859375,-0.021484375,0.0,0.0,0.0
75392476,60092,0,1.001953125,-0.029296875,0.017578125,-0.01171875,0.0,0.0,0.0
75393728,60093,0,1.001953125,-0.02734375,0.025390625,-0.001953125,0.0,0.0,0.0
75394979,60094,0,0.998046875,-0.02734375,0.009765625,-0.017578125,0.0,0.0,0.0
75396229,60095,0,1.005859375,-0.02734375,0.009765625,-0.017578125,0.0,0.0,0.0
75397481,60096,0,1.001953125,-0.03125,0.01171875,-0.01953125,0.0,0.0,0.0
75398731,60097,0,1.009765625,-0.0234375,0.01171875,-0.01171875,0.0,0.0,0.0
75399981,60098,0,0.99609375,-0.0234375,0.01953125,-0.00390625,0.0,0.0,0.0
75401232,60099,0,1.001953125,-0.029296875,0.017578125,-0.01171875,0.0,0.0,0.0
75402483,60100,0,1.0078125,-0.0234375,0.01953125,-0.00390625,0.0,0.0,0.0
75403734,60101,0,1.00390625,-0.029296875,0.01953125,-0.009765625,0.0,0.0,0.0
75404986,60102,0,1.0,-0.03125,0.017578125,-0.013671875,0.0,0.0,0.0
75406236,60103,0,1.0,-0.0234375,0.01171875,-0.01171875,0.0,0.0,0.0
75407486,60104,0,1.009765625,-0.025390625,0.009765625,-0.015625,0.0,0.0,0.0
75408737,60105,0,1.005859375,-0.021484375,0.015625,-0.005859375,0.0,0.0,0.0
75409987,60106,0,0.99609375,-0.029296875,0.013671875,-0.015625,0.0,0.0,0.0
75411238,60107,0,1.0,-0.029296875,0.013671875,-0.015625,0.0,0.0,0.0
75412489,60108,0,1.001953125,-0.025390625,0.015625,-0.009765625,0.0,0.0,0.0
75413740,60109,0,1.00390625,-0.025390625,0.01171875,-0.013671875,0.0,0.0,0.0
75414991,60110,0,1.01171875,-0.025390625,0.013671875,-0.01171875,0.0,0.0,0.0
75416241,60111,0,1.005859375,-0.025390625,0.017578125,-0.0078125,0.0,0.0,0.0
75417492,60112,0,1.005859375,-0.025390625,0.021484375,-0.00390625,0.0,0.0,0.0
75418744,60113,0,1.0078125,-0.029296875,0.015625,-0.013671875,0.0,0.0,0.0
75419994,60114,0,1.0078125,-0.025390625,0.013671875,-0.01171875,0.0,0.0,0.0
75421245,60115,0,1.017578125,-0.017578125,0.009765625,-0.0078125,0.0,0.0,0.0
75422496,60116,0,1.001953125,-0.0234375,0.025390625,0.001953125,0.0,0.0,0.0
75423747,60117,0,1.009765625,-0.021484375,0.01953125,-0.001953125,0.0,0.0,0.0
75424998,60118,0,1.0,-0.0234375,0.017578125,-0.005859375,0.0,0.0,0.0
75426249,60119,0,0.998046875,-0.02734375,0.017578125,-0.009765625,0.0,0.0,0.0
75427499,60120,0,0.99609375,-0.029296875,0.01171875,-0.017578125,0.0,0.0,0.0
75428751,60121,0,1.00390625,-0.0234375,0.015625,-0.0078125,0.0,0.0,0.0
75430002,60122,0,1.00390625,-0.025390625,0.009765625,-0.015625,0.0,0.0,0.0
75431253,60123,0,1.001953125,-0.02734375,0.013671875,-0.013671875,0.0,0.0,0.0
75432503,60124,0,1.005859375,-0.02734375,0.013671875,-0.013671875,0.0,0.0,0.0
75433755,60125,0,1.005859375,-0.021484375,0.013671875,-0.0078125,0.0,0.0,0.0
75435005,60126,0,1.0,-0.0234375,0.021484375,-0.001953125,0.0,0.0,0.0
75436256,60127,0,1.01171875,-0.0234375,0.01953125,-0.00390625,0.0,0.0,0.0
75437506,60128,0,1.009765625,-0.021484375,0.021484375,0.0,0.0,0.0,0.0
75438757,60129,0,1.001953125,-0.02734375,0.017578125,-0.009765625,0.0,0.0,0.0
75440008,60130,0,1.001953125,-0.02734375,0.017578125,-0.009765625,0.0,0.0,0.0
75441258,60131,0,1.00390625,-0.029296875,0.013671875,-0.015625,0.0,0.0,0.0
75442508,60132,0,1.00390625,-0.029296875,0.017578125,-0.01171875,0.0,0.0,0.0
75443759,60133,0,1.00390625,-0.021484375,0.017578125,-0.00390625,0.0,0.0,0.0
75445009,60134,0,1.00390625,-0.0234375,0.01953125,-0.00390625,0.0,0.0,0.0
75446259,60135,0,1.009765625,-0.03125,0.021484375,-0.009765625,0.0,0.0,0.0
75447510,60136,0,1.0078125,-0.029296875,0.021484375,-0.0078125,0.0,0.0,0.0
75448762,60137,0,1.0078125,-0.02734375,0.01171875,-0.015625,0.0,0.0,0.0
75450012,60138,0,0.99609375,-0.021484375,0.017578125,-0.00390625,0.0,0.0,0.0
75451271,60139,0,1.0,-0.025390625,0.01171875,-0.013671875,0.0,0.0,0.0
75452521,60140,0,0.99609375,-0.0234375,0.017578125,-0.005859375,0.0,0.0,0.0
75453773,60141,0,0.994140625,-0.02734375,0.01171875,-0.015625,0.0,0.0,0.0
75455023,60142,0,1.0078125,-0.02734375,0.017578125,-0.009765625,0.0,0.0,0.0
75456274,60143,0,1.0078125,-0.025390625,0.013671875,-0.01171875,0.0,0.0,0.0
75457525,60144,0,1.00390625,-0.029296875,0.015625,-0.013671875,0.0,0.0,0.0
75458776,60145,0,1.00390625,-0.02734375,0.01171875,-0.015625,0.0,0.0,0.0
75460026,60146,0,1.0,-0.0234375,0.015625,-0.0078125,0.0,0.0,0.0
75461276,60147,0,1.00390625,-0.0234375,0.015625,-0.0078125,0.0,0.0,0.0
75462527,60148,0,1.009765625,-0.03125,0.005859375,-0.025390625,0.0,0.0,0.0
75463778,60149,0,1.005859375,-0.02734375,0.01171875,-0.015625,0.0,0.0,0.0
75465029,60150,0,0.998046875,-0.025390625,0.013671875,-0.01171875,0.0,0.0,0.0
75466280,60151,0,1.00390625,-0.025390625,0.01953125,-0.005859375,0.0,0.0,0.0
75467531,60152,0,1.005859375,-0.02734375,0.017578125,-0.009765625,0.0,0.0,0.0
75468783,60153,0,1.00390625,-0.02734375,0.015625,-0.01171875,0.0,0.0,0.0
75470034,60154,0,1.005859375,-0.02734375,0.013671875,-0.013671875,0.0,0.0,0.0
75471286,60155,0,1.00390625,-0.02734375,0.01953125,-0.0078125,0.0,0.0,0.0
75472537,60156,0,1.0078125,-0.03125,0.01171875,-0.01953125,0.0,0.0,0.0
75473789,60157,0,1.001953125,-0.02734375,0.0078125,-0.01953125,0.0,0.0,0.0
75475039,60158,0,1.00390625,-0.03125,0.015625,-0.015625,0.0,0.0,0.0
75476289,60159,0,1.0,-0.0234375,0.015625,-0.0078125,0.0,0.0,0.0
75477541,60160,0,1.013671875,-0.0234375,0.01171875,-0.01171875,0.0,0.0,-1.563559678278236e+26
75480044,60162,0,1.00390625,-0.03125,0.009765625,-0.021484375,0.0,0.0,0.0
75481294,60163,0,0.99609375,-0.025390625,0.017578125,-0.0078125,0.0,0.0,0.0
75482544,60164,0,1.005859375,-0.02734375,0.013671875,-0.013671875,0.0,0.0,0.0
75483795,60165,0,1.0078125,-0.02734375,0.015625,-0.01171875,0.0,0.0,0.0
75485045,60166,0,1.00390625,-0.03125,0.015625,-0.015625,0.0,0.0,0.0
75486295,60167,0,1.0078125,-0.025390625,0.01953125,-0.005859375,0.0,0.0,0.0
75487546,60168,0,1.0078125,-0.025390625,0.015625,-0.009765625,0.0,0.0,0.0
75488797,60169,0,1.00390625,-0.021484375,0.015625,-0.005859375,0.0,0.0,0.0
75490048,60170,0,1.00390625,-0.025390625,0.01953125,-0.005859375,0.0,0.0,0.0
75491299,60171,0,0.998046875,-0.025390625,0.013671875,-0.01171875,0.0,0.0,0.0
75492550,60172,0,1.001953125,-0.029296875,0.017578125,-0.01171875,0.0,0.0,0.0
75493800,60173,0,1.00390625,-0.02734375,0.01953125,-0.0078125,0.0,0.0,0.0
75495052,60174,0,1.0,-0.02734375,0.01171875,-0.015625,0.0,0.0,0.0
75496303,60175,0,1.0,-0.02734375,0.013671875,-0.013671875,0.0,0.0,0.0
75497554,60176,0,1.001953125,-0.03125,0.009765625,-0.021484375,0.0,0.0,0.0
75498805,60177,0,1.00390625,-0.021484375,0.021484375,0.0,0.0,0.0,0.0
75500057,60178,0,1.0078125,-0.021484375,0.017578125,-0.00390625,0.0,0.0,0.0
75501308,60179,0,0.998046875,-0.03125,0.025390625,-0.005859375,0.0,0.0,0.0
75502560,60180,0,1.00390625,-0.025390625,0.017578125,-0.0078125,0.0,0.0,0.0
75503811,60181,0,1.017578125,-0.029296875,0.015625,-0.013671875,0.0,0.0,0.0
75505063,60182,0,1.0,-0.025390625,0.009765625,-0.015625,0.0,0.0,0.0
75506314,60183,0,1.005859375,-0.025390625,0.013671875,-0.01171875,0.0,0.0,0.0
75507565,60184,0,1.009765625,-0.02734375,0.01953125,-0.0078125,0.0,0.0,0.0
75508816,60185,0,1.0,-0.02734375,0.013671875,-0.013671875,0.0,0.0,0.0
75510066,60186,0,1.005859375,-0.0234375,0.0234375,0.0,0.0,0.0,0.0
75511318,60187,0,1.00390625,-0.02734375,0.01953125,-0.0078125,0.0,0.0,0.0
75512569,60188,0,1.0,-0.025390625,0.01953125,-0.005859375,0.0,0.0,0.0
75513819,60189,0,1.0078125,-0.025390625,0.01171875,-0.013671875,0.0,0.0,0.0
75515070,60190,0,1.001953125,-0.025390625,0.01953125,-0.005859375,0.0,0.0,0.0
75516321,60191,0,1.001953125,-0.025390625,0.015625,-0.009765625,0.0,0.0,0.0
75517572,60192,0,0.99609375,-0.025390625,0.009765625,-0.015625,0.0,0.0,0.0
75518823,60193,0,1.0,-0.02734375,0.013671875,-0.013671875,0.0,0.0,0.0
75520074,60194,0,0.998046875,-0.02734375,0.009765625,-0.017578125,0.0,0.0,0.0
75521325,60195,0,1.005859375,-0.029296875,0.01171875,-0.017578125,0.0,0.0,0.0
75522575,60196,0,1.00390625,-0.02734375,0.01171875,-0.015625,0.0,0.0,0.0
75523825,60197,0,1.005859375,-0.021484375,0.0234375,0.001953125,0.0,0.0,0.0
75525076,60198,0,1.00390625,-0.01953125,0.021484375,0.001953125,0.0,0.0,0.0
75526326,60199,0,1.001953125,-0.025390625,0.015625,-0.009765625,0.0,0.0,0.0
75527577,60200,0,1.013671875,-0.02734375,0.015625,-0.01171875,0.0,0.0,0.0
75528828,60201,0,1.005859375,-0.029296875,0.01171875,-0.017578125,0.0,0.0,0.0
75530078,60202,0,1.0078125,-0.02734375,0.013671875,-0.013671875,0.0,0.0,0.0
75531329,60203,0,1.005859375,-0.025390625,0.017578125,-0.0078125,0.0,0.0,0.0
75532581,60204,0,1.00390625,-0.03125,0.009765625,-0.021484375,0.0,0.0,0.0
75533833,60205,0,1.005859375,-0.025390625,0.01171875,-0.013671875,0.0,0.0,0.0
75535083,60206,0,0.99609375,-0.02734375,0.017578125,-0.009765625,0.0,0.0,0.0
75536333,60207,0,1.0,-0.029296875,0.015625,-0.013671875,0.0,0.0,0.0
75537584,60208,0,1.001953125,-0.0234375,0.013671875,-0.009765625,0.0,0.0,0.0
75538835,60209,0,0.998046875,-0.029296875,0.017578125,-0.01171875,0.0,0.0,0.0
75540085,60210,0,1.00390625,-0.029296875,0.01171875,-0.017578125,0.0,0.0,0.0
75541336,60211,0,1.00390625,-0.025390625,0.015625,-0.009765625,0.0,0.0,0.0
75542587,60212,0,1.009765625,-0.02734375,0.009765625,-0.017578125,0.0,0.0,0.0
75543838,60213,0,1.0078125,-0.02734375,0.015625,-0.01171875,0.0,0.0,0.0
75545090,60214,0,1.0,-0.03125,0.01953125,-0.01171875,0.0,0.0,0.0
75546341,60215,0,1.00390625,-0.029296875,0.01953125,-0.009765625,0.0,0.0,0.0
75547592,60216,0,1.00390625,-0.025390625,0.015625,-0.009765625,0.0,0.0,0.0
75548844,60217,0,1.00390625,-0.025390625,0.015625,-0.009765625,0.0,0.0,0.0
75550095,60218,0,1.001953125,-0.02734375,0.015625,-0.01171875,0.0,0.0,0.0
75551346,60219,0,0.998046875,-0.025390625,0.009765625,-0.015625,0.0,0.0,0.0
75552597,60220,0,0.998046875,-0.02734375,0.017578125,-0.009765625,0.0,0.0,0.0
75553849,60221,0,0.998046875,-0.029296875,0.013671875,-0.015625,0.0,0.0,0.0
75555099,60222,0,1.00390625,-0.02734375,0.021484375,-0.005859375,0.0,0.0,0.0
75556351,60223,0,1.00390625,-0.029296875,0.017578125,-0.01171875,0.0,0.0,0.0
75557602,60224,0,0.994140625,-0.02734375,0.01953125,-0.0078125,0.0,0.0,0.0
75558854,60225,0,1.00390625,-0.0234375,0.017578125,-0.005859375,0.0,0.0,0.0
75560104,60226,0,1.005859375,-0.02734375,0.01171875,-0.015625,0.0,0.0,0.0
75561354,60227,0,1.0078125,-0.0234375,0.017578125,-0.005859375,0.0,0.0,0.0
75562605,60228,0,1.001953125,-0.025390625,0.015625,-0.009765625,0.0,0.0,0.0
75563855,60229,0,0.998046875,-0.021484375,0.017578125,-0.00390625,0.0,0.0,0.0
75565107,60230,0,1.001953125,-0.0234375,0.013671875,-0.009765625,0.0,0.0,0.0
75566358,60231,0,0.994140625,-0.0234375,0.013671875,-0.009765625,0.0,0.0,0.0
75567609,60232,0,1.001953125,-0.025390625,0.015625,-0.009765625,0.0,0.0,0.0
75568859,60233,0,1.005859375,-0.029296875,0.017578125,-0.01171875,0.0,0.0,0.0
75570111,60234,0,0.998046875,-0.02734375,0.017578125,-0.009765625,0.0,0.0,0.0
75571362,60235,0,1.0,-0.021484375,0.01953125,-0.001953125,0.0,0.0,0.0
75572613,60236,0,0.998046875,-0.0234375,0.017578125,-0.005859375,0.0,0.0,0.0
75573865,60237,0,1.00390625,-0.02734375,0.015625,-0.01171875,0.0,0.0,0.0
75575115,60238,0,1.0,-0.025390625,0.013671875,-0.01171875,0.0,0.0,0.0
75576365,60239,0,1.0078125,-0.025390625,0.009765625,-0.015625,0.0,0.0,0.0
75577617,60240,0,1.009765625,-0.02734375,0.005859375,-0.021484375,0.0,0.0,0.0
75578867,60241,0,1.001953125,-0.025390625,0.0078125,-0.017578125,0.0,0.0,0.0
75580118,60242,0,1.005859375,-0.03125,0.017578125,-0.013671875,0.0,0.0,0.0
75581369,60243,0,1.0,-0.02734375,0.03125,0.00390625,0.0,0.0,0.0
75582620,60244,0,0.99609375,-0.029296875,0.01171875,-0.017578125,0.0,0.0,0.0
75583871,60245,0,1.001953125,-0.02734375,0.015625,-0.01171875,0.0,0.0,0.0
75585123,60246,0,0.998046875,-0.029296875,0.015625,-0.013671875,0.0,0.0,0.0
75586374,60247,0,1.00390625,-0.02734375,0.015625,-0.01171875,0.0,0.0,0.0
75587624,60248,0,1.005859375,-0.029296875,0.015625,-0.013671875,0.0,0.0,0.0
75588875,60249,0,1.00390625,-0.029296875,0.01953125,-0.009765625,0.0,0.0,0.0
75590125,60250,0,1.005859375,-0.029296875,0.021484375,-0.0078125,0.0,0.0,0.0
75591375,60251,0,1.001953125,-0.02734375,0.009765625,-0.017578125,0.0,0.0,0.0
75592626,60252,0,1.001953125,-0.03125,0.01953125,-0.01171875,0.0,0.0,0.0
75593877,60253,0,1.009765625,-0.03125,0.021484375,-0.009765625,0.0,0.0,0.0
75595129,60254,0,1.001953125,-0.029296875,0.015625,-0.013671875,0.0,0.0,0.0
75596380,60255,0,1.00390625,-0.02734375,0.01171875,-0.015625,0.0,0.0,0.0
75597630,60256,0,1.001953125,-0.02734375,0.017578125,-0.009765625,0.0,0.0,0.0
75598881,60257,0,1.001953125,-0.029296875,0.01171875,-0.017578125,0.0,0.0,0.0
75600133,60258,0,0.998046875,-0.029296875,0.017578125,-0.01171875,0.0,0.0,0.0
75601384,60259,0,1.005859375,-0.02734375,0.013671875,-0.013671875,0.0,0.0,0.0
75602634,60260,0,1.001953125,-0.025390625,0.01953125,-0.005859375,0.0,0.0,0.0
75603886,60261,0,1.0078125,-0.03125,0.013671875,-0.017578125,0.0,0.0,0.0
75605136,60262,0,1.009765625,-0.02734375,0.009765625,-0.017578125,0.0,0.0,0.0
75606386,60263,0,1.005859375,-0.02734375,0.017578125,-0.009765625,0.0,0.0,0.0
75607638,60264,0,1.0078125,-0.02734375,0.015625,-0.01171875,0.0,0.0,0.0
75608888,60265,0,0.994140625,-0.02734375,0.0234375,-0.00390625,0.0,0.0,0.0
75610139,60266,0,1.005859375,-0.02734375,0.017578125,-0.009765625,0.0,0.0,0.0
75611391,60267,0,1.001953125,-0.029296875,0.0078125,-0.021484375,0.0,0.0,0.0
75612641,60268,0,1.015625,-0.033203125,0.00390625,-0.029296875,0.0,0.0,0.0
75613892,60269,0,1.01953125,-0.02734375,0.009765625,-0.017578125,0.0,0.0,0.0
75615142,60270,0,1.00390625,-0.02734375,0.017578125,-0.009765625,0.0,0.0,0.0
75616393,60271,0,1.0,-0.02734375,0.013671875,-0.013671875,0.0,0.0,0.0
75617645,60272,0,1.005859375,-0.025390625,0.015625,-0.009765625,0.0,0.0,0.0
75618895,60273,0,1.0,-0.025390625,0.013671875,-0.01171875,0.0,0.0,0.0
75620147,60274,0,1.00390625,-0.025390625,0.021484375,-0.00390625,0.0,0.0,0.0
75621397,60275,0,1.001953125,-0.021484375,0.009765625,-0.01171875,0.0,0.0,0.0
75622649,60276,0,1.009765625,-0.02734375,0.015625,-0.01171875,0.0,0.0,0.0
75623899,60277,0,1.0078125,-0.025390625,0.015625,-0.009765625,0.0,0.0,0.0
75625149,60278,0,1.0,-0.03125,0.01171875,-0.01953125,0.0,0.0,0.0
75626399,60279,0,1.00390625,-0.02734375,0.01171875,-0.015625,0.0,0.0,0.0
75627650,60280,0,0.998046875,-0.02734375,0.017578125,-0.009765625,0.0,0.0,0.0
75628902,60281,0,1.001953125,-0.025390625,0.015625,-0.009765625,0.0,0.0,0.0
75630153,60282,0,1.009765625,-0.025390625,0.017578125,-0.0078125,0.0,0.0,0.0
75631404,60283,0,1.0,-0.025390625,0.015625,-0.009765625,0.0,0.0,0.0
75632654,60284,0,1.005859375,-0.033203125,0.013671875,-0.01953125,0.0,0.0,0.0
75633904,60285,0,1.001953125,-0.02734375,0.01171875,-0.015625,0.0,0.0,0.0
75635155,60286,0,1.0078125,-0.025390625,0.013671875,-0.01171875,0.0,0.0,0.0
75636407,60287,0,1.0078125,-0.025390625,0.013671875,-0.01171875,0.0,0.0,0.0
75637657,60288,0,1.001953125,-0.0234375,0.025390625,0.001953125,0.0,0.0,0.0
75638909,60289,0,1.001953125,-0.02734375,0.021484375,-0.005859375,0.0,0.0,0.0
75640159,60290,0,1.001953125,-0.02734375,0.017578125,-0.009765625,0.0,0.0,0.0
75641409,60291,0,1.00390625,-0.025390625,0.015625,-0.009765625,0.0,0.0,0.0
75642661,60292,0,1.005859375,-0.025390625,0.015625,-0.009765625,0.0,0.0,0.0
75643911,60293,0,1.005859375,-0.02734375,0.015625,-0.01171875,0.0,0.0,0.0
75645161,60294,0,1.005859375,-0.025390625,0.01953125,-0.005859375,0.0,0.0,0.0
75646411,60295,0,1.001953125,-0.0234375,0.017578125,-0.005859375,0.0,0.0,0.0
75647663,60296,0,1.00390625,-0.025390625,0.015625,-0.009765625,0.0,0.0,0.0
75648913,60297,0,1.00390625,-0.02734375,0.009765625,-0.017578125,0.0,0.0,0.0
75650164,60298,0,1.0078125,-0.021484375,0.015625,-0.005859375,0.0,0.0,0.0
75651415,60299,0,1.009765625,-0.025390625,0.0234375,-0.001953125,0.0,0.0,0.0
75652666,60300,0,1.005859375,-0.02734375,0.013671875,-0.013671875,0.0,0.0,0.0
75653916,60301,0,1.009765625,-0.03125,0.017578125,-0.013671875,0.0,0.0,0.0
75655167,60302,0,1.0078125,-0.025390625,0.01171875,-0.013671875,0.0,0.0,0.0
75656417,60303,0,1.0078125,-0.025390625,0.015625,-0.009765625,0.0,0.0,0.0
75657668,60304,0,1.00390625,-0.02734375,0.0234375,-0.00390625,0.0,0.0,0.0
75658920,60305,0,1.005859375,-0.029296875,0.01953125,-0.009765625,0.0,0.0,0.0
75660171,60306,0,1.0078125,-0.02734375,0.01953125,-0.0078125,0.0,0.0,0.0
75661421,60307,0,1.005859375,-0.02734375,0.01171875,-0.015625,0.0,0.0,0.0
75662672,60308,0,0.998046875,-0.02734375,0.01953125,-0.0078125,0.0,0.0,0.0
75663924,60309,0,1.0078125,-0.029296875,0.021484375,-0.0078125,0.0,0.0,0.0
75665174,60310,0,0.99609375,-0.029296875,0.015625,-0.013671875,0.0,0.0,0.0
75666425,60311,0,1.0,-0.029296875,0.015625,-0.013671875,0.0,0.0,0.0
75667677,60312,0,1.001953125,-0.02734375,0.01171875,-0.015625,0.0,0.0,0.0
75668927,60313,0,1.0,-0.02734375,0.015625,-0.01171875,0.0,0.0,0.0
75670177,60314,0,1.0078125,-0.0234375,0.01953125,-0.00390625,0.0,0.0,0.0
75671429,60315,0,1.0078125,-0.025390625,0.01953125,-0.005859375,0.0,0.0,0.0
75672679,60316,0,1.0,-0.03125,0.01171875,-0.01953125,0.0,0.0,0.0
75673931,60317,0,1.005859375,-0.029296875,0.01953125,-0.009765625,0.0,0.0,0.0
75675181,60318,0,1.00390625,-0.025390625,0.017578125,-0.0078125,0.0,0.0,0.0
75676431,60319,0,1.0,-0.025390625,0.013671875,-0.01171875,0.0,0.0,0.0
75677683,60320,0,0.998046875,-0.03125,0.017578125,-0.013671875,0.0,0.0,0.0
75678933,60321,0,0.99609375,-0.025390625,0.015625,-0.009765625,0.0,0.0,0.0
75680183,60322,0,1.005859375,-0.03125,0.01171875,-0.01953125,0.0,0.0,0.0
75681434,60323,0,1.0078125,-0.02734375,0.013671875,-0.013671875,0.0,0.0,0.0
75682685,60324,0,0.994140625,-0.02734375,0.017578125,-0.009765625,0.0,0.0,0.0
75683936,60325,0,1.01171875,-0.021484375,0.015625,-0.005859375,0.0,0.0,0.0
75685186,60326,0,1.005859375,-0.02734375,0.015625,-0.01171875,0.0,0.0,0.0
75686437,60327,0,0.994140625,-0.0234375,0.021484375,-0.001953125,0.0,0.0,0.0
75687687,60328,0,1.001953125,-0.021484375,0.0234375,0.001953125,0.0,0.0,0.0
75688937,60329,0,1.0,-0.017578125,0.0234375,0.005859375,0.0,0.0,0.0
75690188,60330,0,1.0078125,-0.025390625,0.01171875,-0.013671875,0.0,0.0,0.0
75691440,60331,0,1.009765625,-0.033203125,0.0078125,-0.025390625,0.0,0.0,0.0
75692690,60332,0,1.005859375,-0.029296875,0.013671875,-0.015625,0.0,0.0,0.0
75693942,60333,0,1.005859375,-0.02734375,0.015625,-0.01171875,0.0,0.0,0.0
75695193,60334,0,1.0078125,-0.02734375,0.0078125,-0.01953125,0.0,0.0,0.0
75696445,60335,0,1.00390625,-0.025390625,0.01171875,-0.013671875,0.0,0.0,0.0
75697695,60336,0,1.0,-0.021484375,0.013671875,-0.0078125,0.0,0.0,0.0
75698947,60337,0,1.00390625,-0.025390625,0.017578125,-0.0078125,0.0,0.0,0.0
75700198,60338,0,1.001953125,-0.02734375,0.013671875,-0.013671875,0.0,0.0,0.0
75701450,60339,0,1.009765625,-0.025390625,0.005859375,-0.01953125,0.0,0.0,0.0
75702700,60340,0,1.00390625,-0.029296875,0.017578125,-0.01171875,0.0,0.0,0.0
75703952,60341,0,1.001953125,-0.025390625,0.01171875,-0.013671875,0.0,0.0,0.0
75705203,60342,0,1.0078125,-0.021484375,0.009765625,-0.01171875,0.0,0.0,0.0
75706454,60343,0,1.001953125,-0.02734375,0.017578125,-0.009765625,0.0,0.0,0.0
75707705,60344,0,1.0078125,-0.025390625,0.009765625,-0.015625,0.0,0.0,0.0
75708957,60345,0,1.0,-0.029296875,0.013671875,-0.015625,0.0,0.0,0.0
75710207,60346,0,1.005859375,-0.029296875,0.01171875,-0.017578125,0.0,0.0,0.0
75711459,60347,0,1.00390625,-0.025390625,0.009765625,-0.015625,0.0,0.0,0.0
75712709,60348,0,1.00390625,-0.029296875,0.013671875,-0.015625,0.0,0.0,0.0
75713959,60349,0,0.9921875,-0.03125,0.01953125,-0.01171875,0.0,0.0,0.0
75715209,60350,0,1.01171875,-0.0234375,0.01953125,-0.00390625,0.0,0.0,0.0
75716459,60351,0,1.01953125,-0.025390625,0.015625,-0.009765625,0.0,0.0,0.0
75717711,60352,0,1.00390625,-0.029296875,0.009765625,-0.01953125,0.0,0.0,0.0
75718961,60353,0,0.99609375,-0.02734375,0.01953125,-0.0078125,0.0,0.0,0.0
75720213,60354,0,1.005859375,-0.02734375,0.015625,-0.01171875,0.0,0.0,0.0
75721464,60355,0,1.0078125,-0.02734375,0.0234375,-0.00390625,0.0,0.0,0.0
75722715,60356,0,1.005859375,-0.01953125,0.015625,-0.00390625,0.0,0.0,0.0
75723966,60357,0,1.0,-0.033203125,0.015625,-0.017578125,0.0,0.0,0.0
75725216,60358,0,1.00390625,-0.02734375,0.015625,-0.01171875,0.0,0.0,0.0
75726467,60359,0,1.005859375,-0.025390625,0.015625,-0.009765625,0.0,0.0,0.0
75727718,60360,0,1.0,-0.02734375,0.021484375,-0.005859375,0.0,0.0,0.0
75728968,60361,0,1.00390625,-0.021484375,0.021484375,0.0,0.0,0.0,0.0
75730219,60362,0,1.005859375,-0.0234375,0.015625,-0.0078125,0.0,0.0,0.0
75731470,60363,0,1.0078125,-0.029296875,0.01953125,-0.009765625,0.0,0.0,0.0
75732721,60364,0,1.00390625,-0.029296875,0.01953125,-0.009765625,0.0,0.0,0.0
75733971,60365,0,1.0078125,-0.0234375,0.015625,-0.0078125,0.0,0.0,0.0
75735223,60366,0,1.00390625,-0.0234375,0.009765625,-0.013671875,0.0,0.0,0.0
75736473,60367,0,1.00390625,-0.02734375,0.015625,-0.01171875,0.0,0.0,0.0
75737723,60368,0,1.0,-0.033203125,0.01171875,-0.021484375,0.0,0.0,0.0
75738975,60369,0,1.001953125,-0.0234375,0.017578125,-0.005859375,0.0,0.0,0.0
75740226,60370,0,1.01171875,-0.025390625,0.01953125,-0.005859375,0.0,0.0,0.0
75741476,60371,0,1.00390625,-0.017578125,0.017578125,0.0,0.0,0.0,0.0
75742728,60372,0,0.9921875,-0.02734375,0.017578125,-0.009765625,0.0,0.0,0.0
75743979,60373,0,1.009765625,-0.025390625,0.017578125,-0.0078125,0.0,0.0,0.0
75745229,60374,0,0.998046875,-0.02734375,0.017578125,-0.009765625,0.0,0.0,0.0
75746481,60375,0,1.005859375,-0.0234375,0.01953125,-0.00390625,0.0,0.0,0.0
75747731,60376,0,1.00390625,-0.025390625,0.015625,-0.009765625,0.0,0.0,0.0
75748981,60377,0,1.0078125,-0.02734375,0.017578125,-0.009765625,0.0,0.0,0.0
75750232,60378,0,1.00390625,-0.029296875,0.021484375,-0.0078125,0.0,0.0,0.0
75751483,60379,0,1.009765625,-0.025390625,0.015625,-0.009765625,0.0,0.0,0.0
75752734,60380,0,1.0078125,-0.025390625,0.015625,-0.009765625,0.0,0.0,0.0
75753986,60381,0,1.0,-0.025390625,0.01953125,-0.005859375,0.0,0.0,0.0
75755236,60382,0,1.0078125,-0.02734375,0.015625,-0.01171875,0.0,0.0,0.0
75756486,60383,0,1.005859375,-0.025390625,0.017578125,-0.0078125,0.0,0.0,0.0
75757737,60384,0,1.001953125,-0.025390625,0.013671875,-0.01171875,0.0,0.0,0.0
75758987,60385,0,1.00390625,-0.0234375,0.01953125,-0.00390625,0.0,0.0,0.0
75760238,60386,0,1.00390625,-0.029296875,0.017578125,-0.01171875,0.0,0.0,0.0
75761489,60387,0,1.001953125,-0.02734375,0.01953125,-0.0078125,0.0,0.0,0.0
75762740,60388,0,1.001953125,-0.02734375,0.013671875,-0.013671875,0.0,0.0,0.0
75763991,60389,0,1.005859375,-0.03125,0.01953125,-0.01171875,0.0,0.0,0.0
75765241,60390,0,1.005859375,-0.021484375,0.00390625,-0.017578125,0.0,0.0,0.0
75766492,60391,0,0.998046875,-0.029296875,0.01171875,-0.017578125,0.0,0.0,0.0
75767744,60392,0,1.0,-0.02734375,0.01953125,-0.0078125,0.0,0.0,0.0
75768994,60393,0,1.005859375,-0.0234375,0.009765625,-0.013671875,0.0,0.0,0.0
75770245,60394,0,1.001953125,-0.029296875,0.015625,-0.013671875,0.0,0.0,0.0
75771496,60395,0,1.0078125,-0.02734375,0.01171875,-0.015625,0.0,0.0,0.0
75772747,60396,0,1.0078125,-0.029296875,0.009765625,-0.01953125,0.0,0.0,0.0
75773998,60397,0,1.009765625,-0.02734375,0.01171875,-0.015625,0.0,0.0,0.0
75775249,60398,0,1.001953125,-0.0234375,0.01953125,-0.00390625,0.0,0.0,0.0
75776499,60399,0,1.005859375,-0.025390625,0.013671875,-0.01171875,0.0,0.0,0.0
75777751,60400,0,1.0,-0.029296875,0.017578125,-0.01171875,0.0,0.0,0.0
75779002,60401,0,1.001953125,-0.02734375,0.015625,-0.01171875,0.0,0.0,0.0
75780253,60402,0,1.001953125,-0.025390625,0.017578125,-0.0078125,0.0,0.0,0.0
75781503,60403,0,1.001953125,-0.029296875,0.015625,-0.013671875,0.0,0.0,0.0
75782755,60404,0,1.001953125,-0.02734375,0.01171875,-0.015625,0.0,0.0,0.0
75784005,60405,0,1.005859375,-0.02734375,0.015625,-0.01171875,0.0,0.0,0.0
75785256,60406,0,1.0078125,-0.029296875,0.009765625,-0.01953125,0.0,0.0,0.0
75786506,60407,0,1.00390625,-0.03125,0.015625,-0.015625,0.0,0.0,0.0
75787757,60408,0,0.998046875,-0.025390625,0.01171875,-0.013671875,0.0,0.0,0.0
75789008,60409,0,1.001953125,-0.029296875,0.009765625,-0.01953125,0.0,0.0,0.0
75790258,60410,0,1.005859375,-0.033203125,0.009765625,-0.0234375,0.0,0.0,0.0
75791508,60411,0,0.998046875,-0.02734375,0.017578125,-0.009765625,0.0,0.0,0.0
75792759,60412,0,1.005859375,-0.033203125,0.015625,-0.017578125,0.0,0.0,0.0
75794009,60413,0,1.0078125,-0.0234375,0.013671875,-0.009765625,0.0,0.0,0.0
75795259,60414,0,0.998046875,-0.02734375,0.013671875,-0.013671875,0.0,0.0,0.0
75796510,60415,0,1.001953125,-0.029296875,0.015625,-0.013671875,0.0,0.0,0.0
75797762,60416,0,1.005859375,-0.025390625,0.01953125,-0.005859375,0.0,0.0,0.0
75799012,60417,0,0.99609375,-0.0234375,0.015625,-0.0078125,0.0,0.0,0.0
75800271,60418,0,1.0078125,-0.021484375,0.01171875,-0.009765625,0.0,0.0,0.0
75801521,60419,0,1.005859375,-0.0234375,0.015625,-0.0078125,0.0,0.0,0.0
75802773,60420,0,1.0078125,-0.033203125,0.01953125,-0.013671875,0.0,0.0,0.0
75804023,60421,0,0.99609375,-0.025390625,0.013671875,-0.01171875,0.0,0.0,0.0
75805274,60422,0,1.00390625,-0.02734375,0.01171875,-0.015625,0.0,0.0,0.0
75806525,60423,0,1.0078125,-0.025390625,0.013671875,-0.01171875,0.0,0.0,0.0
75807776,60424,0,1.00390625,-0.029296875,0.01171875,-0.017578125,0.0,0.0,0.0
75809026,60425,0,1.001953125,-0.02734375,0.015625,-0.01171875,0.0,0.0,0.0
75810276,60426,0,1.001953125,-0.025390625,0.015625,-0.009765625,0.0,0.0,0.0
75811527,60427,0,1.005859375,-0.033203125,0.015625,-0.017578125,0.0,0.0,0.0
75812778,60428,0,1.00390625,-0.029296875,0.015625,-0.013671875,0.0,0.0,0.0
75814029,60429,0,1.009765625,-0.0234375,0.017578125,-0.005859375,0.0,0.0,0.0
75815280,60430,0,1.001953125,-0.029296875,0.015625,-0.013671875,0.0,0.0,0.0
75816531,60431,0,1.00390625,-0.02734375,0.015625,-0.01171875,0.0,0.0,0.0
75817783,60432,0,1.00390625,-0.029296875,0.013671875,-0.015625,0.0,0.0,0.0
75819034,60433,0,1.001953125,-0.025390625,0.015625,-0.009765625,0.0,0.0,0.0
75820286,60434,0,1.0,-0.025390625,0.0078125,-0.017578125,0.0,0.0,0.0
75821537,60435,0,1.0,-0.025390625,0.015625,-0.009765625,0.0,0.0,0.0
75822789,60436,0,1.0,-0.021484375,0.021484375,0.0,0.0,0.0,0.0
75824039,60437,0,1.005859375,-0.025390625,0.017578125,-0.0078125,0.0,0.0,0.0
75825289,60438,0,1.00390625,-0.0234375,0.017578125,-0.005859375,0.0,0.0,0.0
75826541,60439,0,1.009765625,-0.0234375,0.0078125,-0.015625,0.0,0.0,0.0
75827792,60440,0,1.0078125,-0.0234375,0.013671875,-0.009765625,0.0,0.0,0.0
75829044,60441,0,1.009765625,-0.025390625,0.01953125,-0.005859375,0.0,0.0,0.0
75830294,60442,0,0.99609375,-0.021484375,0.017578125,-0.00390625,0.0,0.0,0.0
75831544,60443,0,1.015625,-0.02734375,0.021484375,-0.005859375,0.0,0.0,0.0
75832795,60444,0,1.0,-0.03125,0.021484375,-0.009765625,0.0,0.0,0.0
75834045,60445,0,1.01171875,-0.025390625,0.013671875,-0.01171875,0.0,0.0,0.0
75835295,60446,0,0.9921875,-0.021484375,0.013671875,-0.0078125,0.0,0.0,0.0
75836546,60447,0,1.009765625,-0.025390625,0.017578125,-0.0078125,0.0,0.0,0.0
75837797,60448,0,0.998046875,-0.025390625,0.015625,-0.009765625,0.0,0.0,0.0
75839048,60449,0,0.998046875,-0.0234375,0.013671875,-0.009765625,0.0,0.0,0.0
75840299,60450,0,0.998046875,-0.02734375,0.015625,-0.01171875,0.0,0.0,0.0
75841550,60451,0,1.009765625,-0.0234375,0.0234375,0.0,0.0,0.0,0.0
75842800,60452,0,1.0,-0.021484375,0.01171875,-0.009765625,0.0,0.0,0.0
75844052,60453,0,1.0078125,-0.03125,0.01171875,-0.01953125,0.0,0.0,0.0
75845303,60454,0,1.0078125,-0.02734375,0.025390625,-0.001953125,0.0,0.0,0.0
75846554,60455,0,1.015625,-0.021484375,0.015625,-0.005859375,0.0,0.0,0.0
75847805,60456,0,1.009765625,-0.0234375,0.01953125,-0.00390625,0.0,0.0,0.0
75849057,60457,0,1.01171875,-0.0234375,0.01953125,-0.00390625,0.0,0.0,0.0
75850308,60458,0,0.998046875,-0.03125,0.017578125,-0.013671875,0.0,0.0,0.0
75851560,60459,0,1.0,-0.025390625,0.0,-0.025390625,0.0,0.0,0.0
75852811,60460,0,1.00390625,-0.02734375,0.01953125,-0.0078125,0.0,0.0,0.0
75854063,60461,0,1.01171875,-0.025390625,0.013671875,-0.01171875,0.0,0.0,0.0
75855314,60462,0,1.009765625,-0.0234375,0.01171875,-0.01171875,0.0,0.0,0.0
75856565,60463,0,1.001953125,-0.02734375,0.017578125,-0.009765625,0.0,0.0,0.0
75857816,60464,0,1.0078125,-0.0234375,0.01953125,-0.00390625,0.0,0.0,0.0
75859066,60465,0,1.01171875,-0.02734375,0.01171875,-0.015625,0.0,0.0,0.0
75860318,60466,0,0.9921875,-0.029296875,0.0078125,-0.021484375,0.0,0.0,0.0
75861569,60467,0,1.001953125,-0.029296875,0.015625,-0.013671875,0.0,0.0,0.0
75862819,60468,0,1.00390625,-0.029296875,0.01171875,-0.017578125,0.0,0.0,0.0
75864070,60469,0,1.00390625,-0.029296875,0.013671875,-0.015625,0.0,0.0,0.0
75865321,60470,0,1.0,-0.02734375,0.009765625,-0.017578125,0.0,0.0,0.0
75866572,60471,0,1.00390625,-0.03125,0.015625,-0.015625,0.0,0.0,0.0
75867823,60472,0,1.009765625,-0.02734375,0.009765625,-0.017578125,0.0,0.0,0.0
75869074,60473,0,1.00390625,-0.025390625,0.013671875,-0.01171875,0.0,0.0,0.0
75870325,60474,0,1.0078125,-0.03125,0.01171875,-0.01953125,0.0,0.0,0.0
75871575,60475,0,1.0078125,-0.025390625,0.01953125,-0.005859375,0.0,0.0,0.0
75872825,60476,0,1.015625,-0.033203125,0.0078125,-0.025390625,0.0,0.0,0.0
75874076,60477,0,1.005859375,-0.021484375,0.021484375,0.0,0.0,0.0,0.0
75875326,60478,0,1.001953125,-0.02734375,0.01171875,-0.015625,0.0,0.0,0.0
75876577,60479,0,1.0078125,-0.03125,0.013671875,-0.017578125,0.0,0.0,0.0
75877828,60480,0,1.0078125,-0.0234375,0.0234375,0.0,0.0,0.0,0.0
75879078,60481,0,1.00390625,-0.029296875,0.009765625,-0.01953125,0.0,0.0,0.0
75880329,60482,0,1.01953125,-0.029296875,0.015625,-0.013671875,0.0,0.0,0.0
75881581,60483,0,1.015625,-0.025390625,0.017578125,-0.0078125,0.0,0.0,0.0
75882833,60484,0,1.00390625,-0.02734375,0.017578125,-0.009765625,0.0,0.0,0.0
75884083,60485,0,1.005859375,-0.02734375,0.015625,-0.01171875,0.0,0.0,0.0
75885333,60486,0,1.005859375,-0.025390625,0.017578125,-0.0078125,0.0,0.0,0.0
75886584,60487,0,1.001953125,-0.029296875,0.017578125,-0.01171875,0.0,0.0,0.0
75887835,60488,0,1.00390625,-0.025390625,0.017578125,-0.0078125,0.0,0.0,0.0
75889085,60489,0,1.00390625,-0.025390625,0.017578125,-0.0078125,0.0,0.0,0.0
75890336,60490,0,1.001953125,-0.029296875,0.01171875,-0.017578125,0.0,0.0,0.0
75891587,60491,0,1.0078125,-0.02734375,0.017578125,-0.009765625,0.0,0.0,0.0
75892838,60492,0,1.005859375,-0.02734375,0.0234375,-0.00390625,0.0,0.0,0.0
75894090,60493,0,0.998046875,-0.025390625,0.017578125,-0.0078125,0.0,0.0,0.0
75895341,60494,0,1.00390625,-0.025390625,0.017578125,-0.0078125,0.0,0.0,0.0
75896592,60495,0,1.0,-0.029296875,0.01171875,-0.017578125,0.0,0.0,0.0
75897844,60496,0,1.0,-0.021484375,0.021484375,0.0,0.0,0.0,0.0
75899095,60497,0,1.00390625,-0.0234375,0.015625,-0.0078125,0.0,0.0,0.0
75900346,60498,0,1.001953125,-0.0234375,0.005859375,-0.017578125,0.0,0.0,0.0
75901597,60499,0,1.001953125,-0.029296875,0.021484375,-0.0078125,0.0,0.0,0.0
75902849,60500,0,1.00390625,-0.0234375,0.0234375,0.0,0.0,0.0,0.0
75904099,60501,0,1.005859375,-0.03125,0.01171875,-0.01953125,0.0,0.0,0.0
75905351,60502,0,1.005859375,-0.02734375,0.017578125,-0.009765625,0.0,0.0,0.0
75906602,60503,0,1.0078125,-0.025390625,0.013671875,-0.01171875,0.0,0.0,0.0
75907854,60504,0,1.01953125,-0.02734375,0.013671875,-0.013671875,0.0,0.0,0.0
75909104,60505,0,1.00390625,-0.025390625,0.017578125,-0.0078125,0.0,0.0,0.0
75910354,60506,0,0.994140625,-0.02734375,0.013671875,-0.013671875,0.0,0.0,0.0
75911605,60507,0,1.001953125,-0.029296875,0.015625,-0.013671875,0.0,0.0,0.0
75912855,60508,0,1.005859375,-0.02734375,0.013671875,-0.013671875,0.0,0.0,0.0
75914107,60509,0,1.00390625,-0.025390625,0.013671875,-0.01171875,0.0,0.0,0.0
75915358,60510,0,1.005859375,-0.029296875,0.005859375,-0.0234375,0.0,0.0,0.0
75916609,60511,0,1.0,-0.03125,0.0,-0.03125,0.0,0.0,0.0
75917859,60512,0,1.0078125,-0.029296875,0.01953125,-0.009765625,0.0,0.0,0.0
75919111,60513,0,1.005859375,-0.02734375,0.01171875,-0.015625,0.0,0.0,0.0
75920362,60514,0,1.001953125,-0.03125,0.01171875,-0.01953125,0.0,0.0,0.0
75921613,60515,0,1.001953125,-0.025390625,0.017578125,-0.0078125,0.0,0.0,0.0
75922865,60516,0,1.00390625,-0.025390625,0.01171875,-0.013671875,0.0,0.0,0.0
75924115,60517,0,0.998046875,-0.03125,0.015625,-0.015625,0.0,0.0,0.0
75925365,60518,0,1.005859375,-0.029296875,0.015625,-0.013671875,0.0,0.0,0.0
75926617,60519,0,1.01171875,-0.0234375,0.01171875,-0.01171875,0.0,0.0,0.0
75927867,60520,0,1.0,-0.029296875,0.017578125,-0.01171875,0.0,0.0,0.0
75929118,60521,0,1.001953125,-0.029296875,0.017578125,-0.01171875,0.0,0.0,0.0
75930369,60522,0,0.998046875,-0.0234375,0.02734375,0.00390625,0.0,0.0,0.0
75931620,60523,0,1.0,-0.02734375,0.015625,-0.01171875,0.0,0.0,0.0
75932871,60524,0,1.001953125,-0.0234375,0.017578125,-0.005859375,0.0,0.0,0.0
75934123,60525,0,1.00390625,-0.02734375,0.015625,-0.01171875,0.0,0.0,0.0
75935374,60526,0,1.0,-0.02734375,0.01171875,-0.015625,0.0,0.0,0.0
75936624,60527,0,0.998046875,-0.025390625,0.013671875,-0.01171875,0.0,0.0,0.0
75937875,60528,0,1.009765625,-0.0234375,0.015625,-0.0078125,0.0,0.0,0.0
75939125,60529,0,1.0,-0.025390625,0.015625,-0.009765625,0.0,0.0,0.0
75940375,60530,0,1.00390625,-0.025390625,0.015625,-0.009765625,0.0,0.0,0.0
75941626,60531,0,1.00390625,-0.029296875,0.015625,-0.013671875,0.0,0.0,0.0
75942877,60532,0,1.005859375,-0.029296875,0.015625,-0.013671875,0.0,0.0,0.0
75944129,60533,0,1.00390625,-0.029296875,0.01953125,-0.009765625,0.0,0.0,0.0
75945380,60534,0,1.00390625,-0.025390625,0.015625,-0.009765625,0.0,0.0,0.0
75946630,60535,0,1.005859375,-0.025390625,0.01171875,-0.013671875,0.0,0.0,0.0
75947881,60536,0,1.001953125,-0.025390625,0.017578125,-0.0078125,0.0,0.0,0.0
75949133,60537,0,1.005859375,-0.029296875,0.017578125,-0.01171875,0.0,0.0,0.0
75950384,60538,0,1.0,-0.017578125,0.017578125,0.0,0.0,0.0,0.0
75951634,60539,0,1.00390625,-0.025390625,0.017578125,-0.0078125,0.0,0.0,0.0
75952886,60540,0,1.005859375,-0.025390625,0.017578125,-0.0078125,0.0,0.0,0.0
75954136,60541,0,1.0078125,-0.02734375,0.0078125,-0.01953125,0.0,0.0,0.0
75955386,60542,0,1.00390625,-0.029296875,0.00390625,-0.025390625,0.0,0.0,0.0
75956638,60543,0,1.005859375,-0.025390625,0.01953125,-0.005859375,0.0,0.0,0.0
75957888,60544,0,1.0,-0.025390625,0.015625,-0.009765625,0.0,0.0,0.0
75959139,60545,0,1.0,-0.021484375,0.01171875,-0.009765625,0.0,0.0,0.0
75960391,60546,0,1.009765625,-0.0234375,0.01171875,-0.01171875,0.0,0.0,0.0
75961641,60547,0,1.0078125,-0.025390625,0.0,-0.025390625,0.0,0.0,0.0
75962892,60548,0,1.0078125,-0.021484375,0.021484375,0.0,0.0,0.0,0.0
75964142,60549,0,1.005859375,-0.02734375,0.015625,-0.01171875,0.0,0.0,0.0
75965393,60550,0,1.001953125,-0.0234375,0.013671875,-0.009765625,0.0,0.0,0.0
75966645,60551,0,1.00390625,-0.025390625,0.015625,-0.009765625,0.0,0.0,0.0
75967895,60552,0,1.001953125,-0.021484375,0.017578125,-0.00390625,0.0,0.0,0.0
75969147,60553,0,1.00390625,-0.025390625,0.01953125,-0.005859375,0.0,0.0,0.0
75970397,60554,0,1.0,-0.025390625,0.017578125,-0.0078125,0.0,0.0,0.0
75971649,60555,0,0.998046875,-0.029296875,0.015625,-0.013671875,0.0,0.0,0.0
75972899,60556,0,1.001953125,-0.02734375,0.017578125,-0.009765625,0.0,0.0,0.0
75974149,60557,0,1.0,-0.025390625,0.013671875,-0.01171875,0.0,0.0,0.0
75975399,60558,0,1.0078125,-0.025390625,0.015625,-0.009765625,0.0,0.0,0.0
75976650,60559,0,1.0078125,-0.029296875,0.015625,-0.013671875,0.0,0.0,0.0
75977902,60560,0,1.00390625,-0.02734375,0.013671875,-0.013671875,0.0,0.0,0.0
75979153,60561,0,1.009765625,-0.021484375,0.015625,-0.005859375,0.0,0.0,0.0
75980404,60562,0,1.0078125,-0.025390625,0.01953125,-0.005859375,0.0,0.0,0.0
75981654,60563,0,0.998046875,-0.0234375,0.01953125,-0.00390625,0.0,0.0,0.0
75982904,60564,0,0.994140625,-0.025390625,0.017578125,-0.0078125,0.0,0.0,0.0
75984155,60565,0,1.001953125,-0.025390625,0.021484375,-0.00390625,0.0,0.0,0.0
75985407,60566,0,1.0,-0.0234375,0.01171875,-0.01171875,0.0,0.0,0.0
75986657,60567,0,1.0,-0.02734375,0.021484375,-0.005859375,0.0,0.0,0.0
75987909,60568,0,0.99609375,-0.029296875,0.015625,-0.013671875,0.0,0.0,0.0
75989159,60569,0,1.001953125,-0.025390625,0.017578125,-0.0078125,0.0,0.0,0.0
75990409,60570,0,1.001953125,-0.029296875,0.017578125,-0.01171875,0.0,0.0,0.0
75991661,60571,0,1.001953125,-0.021484375,0.017578125,-0.00390625,0.0,0.0,0.0
75992911,60572,0,1.0078125,-0.0234375,0.015625,-0.0078125,0.0,0.0,0.0
75994161,60573,0,0.99609375,-0.03125,0.01953125,-0.01171875,0.0,0.0,0.0
75995411,60574,0,1.005859375,-0.0234375,0.0234375,0.0,0.0,0.0,0.0
75996663,60575,0,1.001953125,-0.029296875,0.015625,-0.013671875,0.0,0.0,0.0
75997913,60576,0,0.998046875,-0.025390625,0.015625,-0.009765625,0.0,0.0,0.0
75999164,60577,0,1.00390625,-0.02734375,0.01171875,-0.015625,0.0,0.0,0.0
76000415,60578,0,1.0078125,-0.0234375,0.013671875,-0.009765625,0.0,0.0,0.0
76001666,60579,0,1.0,-0.025390625,0.021484375,-0.00390625,0.0,0.0,0.0
76002916,60580,0,1.009765625,-0.03125,0.01171875,-0.01953125,0.0,0.0,0.0
76004167,60581,0,1.005859375,-0.025390625,0.015625,-0.009765625,0.0,0.0,0.0
76005417,60582,0,1.009765625,-0.029296875,0.0078125,-0.021484375,0.0,0.0,0.0
76006668,60583,0,1.001953125,-0.02734375,0.01953125,-0.0078125,0.0,0.0,0.0
76007920,60584,0,1.0,-0.021484375,0.021484375,0.0,0.0,0.0,0.0
76009171,60585,0,1.01171875,-0.02734375,0.0078125,-0.01953125,0.0,0.0,0.0
76010421,60586,0,1.001953125,-0.025390625,0.009765625,-0.015625,0.0,0.0,0.0
76011672,60587,0,1.005859375,-0.02734375,0.021484375,-0.005859375,0.0,0.0,0.0
76012924,60588,0,1.00390625,-0.025390625,0.017578125,-0.0078125,0.0,0.0,0.0
76014174,60589,0,1.0078125,-0.02734375,0.021484375,-0.005859375,0.0,0.0,0.0
76015425,60590,0,1.0,-0.029296875,0.009765625,-0.01953125,0.0,0.0,0.0
76016677,60591,0,1.0,-0.025390625,0.013671875,-0.01171875,0.0,0.0,0.0
76017927,60592,0,1.0078125,-0.029296875,0.021484375,-0.0078125,0.0,0.0,0.0
76019177,60593,0,1.005859375,-0.029296875,0.021484375,-0.0078125,0.0,0.0,0.0
76020429,60594,0,1.005859375,-0.02734375,0.01953125,-0.0078125,0.0,0.0,0.0
76021679,60595,0,1.0,-0.021484375,0.021484375,0.0,0.0,0.0,0.0
76022931,60596,0,1.0078125,-0.025390625,0.009765625,-0.015625,0.0,0.0,0.0
76024181,60597,0,1.009765625,-0.02734375,0.017578125,-0.009765625,0.0,0.0,0.0
76025431,60598,0,1.001953125,-0.02734375,0.017578125,-0.009765625,0.0,0.0,0.0
76026683,60599,0,0.998046875,-0.029296875,0.015625,-0.013671875,0.0,0.0,0.0
76027933,60600,0,1.005859375,-0.025390625,0.009765625,-0.015625,0.0,0.0,0.0
76029183,60601,0,1.005859375,-0.025390625,0.01953125,-0.005859375,0.0,0.0,0.0
76030434,60602,0,1.005859375,-0.03125,0.0078125,-0.0234375,0.0,0.0,0.0
76031685,60603,0,1.005859375,-0.025390625,0.01171875,-0.013671875,0.0,0.0,0.0
76032936,60604,0,1.00390625,-0.0234375,0.015625,-0.0078125,0.0,0.0,0.0
76034186,60605,0,1.001953125,-0.021484375,0.01171875,-0.009765625,0.0,0.0,0.0
76035437,60606,0,1.001953125,-0.0234375,0.017578125,-0.005859375,0.0,0.0,0.0
76036687,60607,0,1.00390625,-0.021484375,0.013671875,-0.0078125,0.0,0.0,0.0
76037937,60608,0,0.99609375,-0.025390625,0.009765625,-0.015625,0.0,0.0,0.0
76039188,60609,0,1.00390625,-0.03125,0.017578125,-0.013671875,0.0,0.0,0.0
76040440,60610,0,1.009765625,-0.025390625,0.01171875,-0.013671875,0.0,0.0,0.0
76041690,60611,0,1.00390625,-0.025390625,0.015625,-0.009765625,0.0,0.0,0.0
76042942,60612,0,1.00390625,-0.0234375,0.009765625,-0.013671875,0.0,0.0,0.0
76044193,60613,0,1.005859375,-0.02734375,0.017578125,-0.009765625,0.0,0.0,0.0
76045445,60614,0,0.998046875,-0.02734375,0.015625,-0.01171875,0.0,0.0,0.0
76046695,60615,0,1.009765625,-0.025390625,0.013671875,-0.01171875,0.0,0.0,0.0
76047947,60616,0,1.0078125,-0.029296875,0.013671875,-0.015625,0.0,0.0,0.0
76049198,60617,0,1.0,-0.021484375,0.0078125,-0.013671875,0.0,0.0,0.0
76050450,60618,0,1.0078125,-0.025390625,0.017578125,-0.0078125,0.0,0.0,0.0
76051700,60619,0,1.0,-0.02734375,0.01953125,-0.0078125,0.0,0.0,0.0
76052952,60620,0,1.001953125,-0.02734375,0.01953125,-0.0078125,0.0,0.0,0.0
76054203,60621,0,1.0,-0.0234375,0.015625,-0.0078125,0.0,0.0,0.0
76055454,60622,0,1.001953125,-0.025390625,0.01171875,-0.013671875,0.0,0.0,0.0
76056705,60623,0,1.005859375,-0.029296875,0.015625,-0.013671875,0.0,0.0,0.0
76057957,60624,0,1.005859375,-0.033203125,0.015625,-0.017578125,0.0,0.0,0.0
76059207,60625,0,1.005859375,-0.02734375,0.01953125,-0.0078125,0.0,0.0,0.0
76060459,60626,0,1.001953125,-0.0234375,0.021484375,-0.001953125,0.0,0.0,0.0
76061709,60627,0,1.01171875,-0.029296875,0.01953125,-0.009765625,0.0,0.0,0.0
76062959,60628,0,1.005859375,-0.01953125,0.015625,-0.00390625,0.0,0.0,0.0
76064209,60629,0,1.005859375,-0.025390625,0.017578125,-0.0078125,0.0,0.0,0.0
76065459,60630,0,1.017578125,-0.0234375,0.013671875,-0.009765625,0.0,0.0,0.0
76066711,60631,0,1.0078125,-0.025390625,0.01953125,-0.005859375,0.0,0.0,0.0
76067961,60632,0,0.994140625,-0.021484375,0.0234375,0.001953125,0.0,0.0,0.0
76069213,60633,0,1.00390625,-0.025390625,0.01953125,-0.005859375,0.0,0.0,0.0
76070464,60634,0,1.005859375,-0.021484375,0.017578125,-0.00390625,0.0,0.0,0.0
76071715,60635,0,1.0078125,-0.0234375,0.017578125,-0.005859375,0.0,0.0,0.0
76072966,60636,0,1.0078125,-0.02734375,0.013671875,-0.013671875,0.0,0.0,0.0
76074216,60637,0,1.0078125,-0.025390625,0.013671875,-0.01171875,0.0,0.0,0.0
76075467,60638,0,1.005859375,-0.02734375,0.017578125,-0.009765625,0.0,0.0,0.0
76076718,60639,0,1.0078125,-0.02734375,0.013671875,-0.013671875,0.0,0.0,0.0
76077968,60640,0,1.0,-0.033203125,0.015625,-0.017578125,0.0,0.0,0.0
76079219,60641,0,1.00390625,-0.021484375,0.013671875,-0.0078125,0.0,0.0,0.0
76080470,60642,0,1.00390625,-0.02734375,0.015625,-0.01171875,0.0,0.0,0.0
76081721,60643,0,1.001953125,-0.01953125,0.01171875,-0.0078125,0.0,0.0,0.0
76082971,60644,0,1.001953125,-0.0234375,0.013671875,-0.009765625,0.0,0.0,0.0
76084223,60645,0,1.00390625,-0.02734375,0.013671875,-0.013671875,0.0,0.0,0.0
76085473,60646,0,1.005859375,-0.025390625,0.015625,-0.009765625,0.0,0.0,0.0
76086723,60647,0,1.00390625,-0.02734375,0.015625,-0.01171875,0.0,0.0,0.0
76087975,60648,0,1.013671875,-0.01953125,0.01171875,-0.0078125,0.0,0.0,0.0
76089226,60649,0,1.0,-0.0234375,0.021484375,-0.001953125,0.0,0.0,0.0
76090476,60650,0,1.001953125,-0.0234375,0.0078125,-0.015625,0.0,0.0,0.0
76091728,60651,0,0.994140625,-0.029296875,0.01953125,-0.009765625,0.0,0.0,0.0
76092979,60652,0,1.00390625,-0.029296875,0.009765625,-0.01953125,0.0,0.0,0.0
76094229,60653,0,1.001953125,-0.02734375,0.01171875,-0.015625,0.0,0.0,0.0
76095481,60654,0,1.00390625,-0.021484375,0.015625,-0.005859375,0.0,0.0,0.0
76096731,60655,0,1.00390625,-0.02734375,0.013671875,-0.013671875,0.0,0.0,0.0
76097981,60656,0,1.00390625,-0.029296875,0.01953125,-0.009765625,0.0,0.0,0.0
76099232,60657,0,1.009765625,-0.025390625,0.017578125,-0.0078125,0.0,0.0,0.0
76100483,60658,0,1.005859375,-0.02734375,0.01953125,-0.0078125,0.0,0.0,0.0
76101734,60659,0,1.0078125,-0.02734375,0.013671875,-0.013671875,0.0,0.0,0.0
76102986,60660,0,1.005859375,-0.025390625,0.021484375,-0.00390625,0.0,0.0,0.0
76104236,60661,0,1.001953125,-0.021484375,0.01953125,-0.001953125,0.0,0.0,0.0
76105486,60662,0,1.005859375,-0.025390625,0.015625,-0.009765625,0.0,0.0,0.0
76106737,60663,0,1.005859375,-0.025390625,0.017578125,-0.0078125,0.0,0.0,0.0
76107987,60664,0,1.009765625,-0.033203125,0.015625,-0.017578125,0.0,0.0,0.0
76109238,60665,0,1.0,-0.02734375,0.01171875,-0.015625,0.0,0.0,0.0
76110489,60666,0,1.0078125,-0.0234375,0.01953125,-0.00390625,0.0,0.0,0.0
76111740,60667,0,1.00390625,-0.02734375,0.017578125,-0.009765625,0.0,0.0,0.0
76112991,60668,0,1.005859375,-0.0234375,0.00390625,-0.01953125,0.0,0.0,0.0
76114241,60669,0,1.005859375,-0.03125,0.021484375,-0.009765625,0.0,0.0,0.0
76115492,60670,0,1.005859375,-0.02734375,0.0078125,-0.01953125,0.0,0.0,0.0
76116744,60671,0,1.00390625,-0.02734375,0.015625,-0.01171875,0.0,0.0,0.0
76117994,60672,0,0.998046875,-0.025390625,0.01171875,-0.013671875,0.0,0.0,0.0
76119245,60673,0,0.998046875,-0.0234375,0.017578125,-0.005859375,0.0,0.0,0.0
76120496,60674,0,1.0078125,-0.029296875,0.005859375,-0.0234375,0.0,0.0,0.0
76121747,60675,0,1.001953125,-0.02734375,0.017578125,-0.009765625,0.0,0.0,0.0
76122998,60676,0,1.00390625,-0.02734375,0.013671875,-0.013671875,0.0,0.0,0.0
76124249,60677,0,1.005859375,-0.029296875,0.017578125,-0.01171875,0.0,0.0,0.0
76125499,60678,0,1.001953125,-0.025390625,0.015625,-0.009765625,0.0,0.0,0.0
76126751,60679,0,1.001953125,-0.029296875,0.017578125,-0.01171875,0.0,0.0,0.0
76128002,60680,0,1.0,-0.02734375,0.013671875,-0.013671875,0.0,0.0,0.0
76129253,60681,0,1.00390625,-0.029296875,0.013671875,-0.015625,0.0,0.0,0.0
76130503,60682,0,1.001953125,-0.029296875,0.01953125,-0.009765625,0.0,0.0,0.0
76131755,60683,0,1.00390625,-0.029296875,0.01953125,-0.009765625,0.0,0.0,0.0
76133005,60684,0,0.998046875,-0.02734375,0.01171875,-0.015625,0.0,0.0,0.0
76134256,60685,0,1.005859375,-0.029296875,0.01171875,-0.017578125,0.0,0.0,0.0
76135506,60686,0,1.0,-0.03125,0.013671875,-0.017578125,0.0,0.0,0.0
76136757,60687,0,1.00390625,-0.02734375,0.009765625,-0.017578125,0.0,0.0,0.0
76138008,60688,0,1.005859375,-0.033203125,0.015625,-0.017578125,0.0,0.0,0.0
76139258,60689,0,1.001953125,-0.02734375,0.021484375,-0.005859375,0.0,0.0,0.0
76140508,60690,0,1.001953125,-0.03125,0.01171875,-0.01953125,0.0,0.0,0.0
76141759,60691,0,1.009765625,-0.0234375,0.01953125,-0.00390625,0.0,0.0,0.0
76143009,60692,0,1.0078125,-0.02734375,0.01953125,-0.0078125,0.0,0.0,0.0
76144259,60693,0,0.99609375,-0.02734375,0.013671875,-0.013671875,0.0,0.0,0.0
76145510,60694,0,0.990234375,-0.029296875,0.013671875,-0.015625,0.0,0.0,0.0
76146762,60695,0,1.001953125,-0.025390625,0.015625,-0.009765625,0.0,0.0,0.0
76148012,60696,0,0.99609375,-0.029296875,0.017578125,-0.01171875,0.0,0.0,0.0
76149271,60697,0,1.005859375,-0.025390625,0.015625,-0.009765625,0.0,0.0,0.0
76150521,60698,0,1.005859375,-0.025390625,0.015625,-0.009765625,0.0,0.0,0.0
76151773,60699,0,1.00390625,-0.02734375,0.017578125,-0.009765625,0.0,0.0,0.0
76153023,60700,0,1.0078125,-0.03125,0.015625,-0.015625,0.0,0.0,0.0
76154274,60701,0,1.0,-0.025390625,0.015625,-0.009765625,0.0,0.0,0.0
76155525,60702,0,1.001953125,-0.0234375,0.015625,-0.0078125,0.0,0.0,0.0
76156776,60703,0,1.00390625,-0.02734375,0.013671875,-0.013671875,0.0,0.0,0.0
76158026,60704,0,1.0,-0.03125,0.017578125,-0.013671875,0.0,0.0,0.0
76159276,60705,0,1.009765625,-0.025390625,0.013671875,-0.01171875,0.0,0.0,0.0
76160527,60706,0,1.001953125,-0.0234375,0.013671875,-0.009765625,0.0,0.0,0.0
76161778,60707,0,1.005859375,-0.025390625,0.015625,-0.009765625,0.0,0.0,0.0
76163029,60708,0,1.001953125,-0.02734375,0.013671875,-0.013671875,0.0,0.0,0.0
76164280,60709,0,1.0078125,-0.025390625,0.0234375,-0.001953125,0.0,0.0,0.0
76165531,60710,0,0.998046875,-0.029296875,0.01953125,-0.009765625,0.0,0.0,0.0
76166783,60711,0,1.0,-0.02734375,0.0078125,-0.01953125,0.0,0.0,0.0
76168034,60712,0,0.998046875,-0.025390625,0.021484375,-0.00390625,0.0,0.0,0.0
76169286,60713,0,1.00390625,-0.02734375,0.013671875,-0.013671875,0.0,0.0,0.0
76170537,60714,0,1.005859375,-0.0234375,0.021484375,-0.001953125,0.0,0.0,0.0
76171789,60715,0,1.0078125,-0.01953125,0.013671875,-0.005859375,0.0,0.0,0.0
76173039,60716,0,1.001953125,-0.029296875,0.015625,-0.013671875,0.0,0.0,0.0
76174289,60717,0,1.0078125,-0.0234375,0.015625,-0.0078125,0.0,0.0,0.0
76175541,60718,0,1.001953125,-0.029296875,0.01171875,-0.017578125,0.0,0.0,0.0
76176792,60719,0,1.01171875,-0.025390625,0.013671875,-0.01171875,0.0,0.0,0.0
76178044,60720,0,1.0078125,-0.02734375,0.01171875,-0.015625,0.0,0.0,0.0
76179294,60721,0,1.00390625,-0.021484375,0.0078125,-0.013671875,0.0,0.0,0.0
76180544,60722,0,1.005859375,-0.029296875,0.013671875,-0.015625,0.0,0.0,0.0
76181795,60723,0,1.00390625,-0.03125,0.009765625,-0.021484375,0.0,0.0,0.0
76183045,60724,0,1.001953125,-0.025390625,0.01953125,-0.005859375,0.0,0.0,0.0
76184295,60725,0,1.00390625,-0.025390625,0.015625,-0.009765625,0.0,0.0,0.0
76185546,60726,0,1.0,-0.029296875,0.015625,-0.013671875,0.0,0.0,0.0
76186797,60727,0,1.005859375,-0.02734375,0.013671875,-0.013671875,0.0,0.0,0.0
76188048,60728,0,1.001953125,-0.0234375,0.015625,-0.0078125,0.0,0.0,0.0
76189299,60729,0,1.00390625,-0.025390625,0.009765625,-0.015625,0.0,0.0,0.0
76190550,60730,0,1.005859375,-0.03125,0.017578125,-0.013671875,0.0,0.0,0.0
76191800,60731,0,1.009765625,-0.025390625,0.01171875,-0.013671875,0.0,0.0,0.0
76193052,60732,0,1.009765625,-0.0234375,0.017578125,-0.005859375,0.0,0.0,0.0
76194303,60733,0,1.009765625,-0.025390625,0.017578125,-0.0078125,0.0,0.0,0.0
76195554,60734,0,1.0078125,-0.0234375,0.017578125,-0.005859375,0.0,0.0,0.0
76196805,60735,0,0.998046875,-0.0234375,0.015625,-0.0078125,0.0,0.0,0.0
76198057,60736,0,0.99609375,-0.02734375,0.017578125,-0.009765625,0.0,0.0,0.0
76199308,60737,0,1.0,-0.029296875,0.01171875,-0.017578125,0.0,0.0,0.0
76200560,60738,0,1.005859375,-0.025390625,0.015625,-0.009765625,0.0,0.0,0.0
76201811,60739,0,1.00390625,-0.02734375,0.01171875,-0.015625,0.0,0.0,0.0
76203063,60740,0,0.998046875,-0.029296875,0.017578125,-0.01171875,0.0,0.0,0.0
76204314,60741,0,1.001953125,-0.0234375,0.015625,-0.0078125,0.0,0.0,0.0
76205565,60742,0,1.00390625,-0.025390625,0.017578125,-0.0078125,0.0,0.0,0.0
76206816,60743,0,1.0,-0.03125,0.01953125,-0.01171875,0.0,0.0,0.0
76208066,60744,0,1.005859375,-0.02734375,0.015625,-0.01171875,0.0,0.0,0.0
76209318,60745,0,1.00390625,-0.02734375,0.015625,-0.01171875,0.0,0.0,0.0
76210569,60746,0,0.998046875,-0.029296875,0.017578125,-0.01171875,0.0,0.0,0.0
76211820,60747,0,1.005859375,-0.021484375,0.021484375,0.0,0.0,0.0,0.0
76213072,60748,0,1.0,-0.025390625,0.015625,-0.009765625,0.0,0.0,0.0
76214322,60749,0,1.0078125,-0.0234375,0.017578125,-0.005859375,0.0,0.0,0.0
76215573,60750,0,1.001953125,-0.0234375,0.021484375,-0.001953125,0.0,0.0,0.0
76216825,60751,0,1.001953125,-0.02734375,0.015625,-0.01171875,0.0,0.0,0.0
76218075,60752,0,1.005859375,-0.0234375,0.01953125,-0.00390625,0.0,0.0,0.0
76219326,60753,0,1.005859375,-0.0234375,0.009765625,-0.013671875,0.0,0.0,0.0
76220577,60754,0,1.0078125,-0.0234375,0.009765625,-0.013671875,0.0,0.0,0.0
76221828,60755,0,1.0078125,-0.0234375,0.01953125,-0.00390625,0.0,0.0,0.0
76223078,60756,0,1.015625,-0.0234375,0.0234375,0.0,0.0,0.0,0.0
76224329,60757,0,0.99609375,-0.02734375,0.015625,-0.01171875,0.0,0.0,0.0
76225581,60758,0,1.009765625,-0.01953125,0.017578125,-0.001953125,0.0,0.0,0.0
76226833,60759,0,1.00390625,-0.03125,0.01171875,-0.01953125,0.0,0.0,0.0
76228083,60760,0,1.001953125,-0.021484375,0.01953125,-0.001953125,0.0,0.0,0.0
76229333,60761,0,1.005859375,-0.03125,0.017578125,-0.013671875,0.0,0.0,0.0
76230584,60762,0,1.001953125,-0.03125,0.017578125,-0.013671875,0.0,0.0,0.0
76231835,60763,0,1.005859375,-0.0234375,0.021484375,-0.001953125,0.0,0.0,0.0
76233085,60764,0,1.0078125,-0.025390625,0.017578125,-0.0078125,0.0,0.0,0.0
76234336,60765,0,1.005859375,-0.025390625,0.021484375,-0.00390625,0.0,0.0,0.0
76235587,60766,0,1.005859375,-0.025390625,0.013671875,-0.01171875,0.0,0.0,0.0
