t_us,frame_id,sensor_id,accX,accY,accZ,acc_sum_YZ,magX,magY,magZ
46058952,36642,0,1.0,-0.033203125,0.017578125,-0.015625,0.0,0.0,0.0
46060203,36643,0,0.998046875,-0.033203125,0.01171875,-0.021484375,0.0,0.0,0.0
46061453,36644,0,0.998046875,-0.02734375,0.015625,-0.01171875,0.0,0.0,0.0
46062705,36645,0,1.01171875,-0.03125,0.0078125,-0.0234375,0.0,0.0,0.0
46063955,36646,0,1.009765625,-0.029296875,0.01953125,-0.009765625,0.0,0.0,0.0
46065207,36647,0,1.001953125,-0.029296875,0.013671875,-0.015625,0.0,0.0,0.0
46066458,36648,0,0.998046875,-0.033203125,0.013671875,-0.01953125,0.0,0.0,0.0
46067710,36649,0,1.0078125,-0.03125,0.01953125,-0.01171875,0.0,0.0,0.0
46068960,36650,0,1.009765625,-0.03515625,0.013671875,-0.021484375,0.0,0.0,0.0
46070210,36651,0,1.00390625,-0.033203125,0.013671875,-0.01953125,0.0,0.0,0.0
46071461,36652,0,1.0,-0.029296875,0.013671875,-0.015625,0.0,0.0,0.0
46072711,36653,0,1.005859375,-0.03125,0.01953125,-0.01171875,0.0,0.0,0.0
46073963,36654,0,1.0,-0.03125,0.021484375,-0.009765625,0.0,0.0,0.0
46075214,36655,0,1.001953125,-0.029296875,0.01171875,-0.017578125,0.0,0.0,0.0
46076465,36656,0,1.005859375,-0.03125,0.015625,-0.015625,0.0,0.0,0.0
46077715,36657,0,1.0,-0.03125,0.015625,-0.015625,0.0,0.0,0.0
46078966,36658,0,1.00390625,-0.037109375,0.01953125,-0.017578125,0.0,0.0,0.0
46080216,36659,0,1.001953125,-0.03125,0.013671875,-0.017578125,0.0,0.0,0.0
46081467,36660,0,0.998046875,-0.033203125,0.013671875,-0.01953125,0.0,0.0,0.0
46082718,36661,0,1.005859375,-0.03125,0.017578125,-0.013671875,0.0,0.0,0.0
46083968,36662,0,1.013671875,-0.033203125,0.01171875,-0.021484375,0.0,0.0,0.0
46085219,36663,0,1.001953125,-0.033203125,0.009765625,-0.0234375,0.0,0.0,0.0
46086470,36664,0,1.009765625,-0.029296875,0.013671875,-0.015625,0.0,0.0,0.0
46087721,36665,0,1.001953125,-0.029296875,0.015625,-0.013671875,0.0,0.0,0.0
46088971,36666,0,1.001953125,-0.03515625,0.015625,-0.01953125,0.0,0.0,0.0
46090223,36667,0,1.001953125,-0.033203125,0.017578125,-0.015625,0.0,0.0,0.0
46091473,36668,0,1.001953125,-0.03125,0.015625,-0.015625,0.0,0.0,0.0
46092723,36669,0,0.998046875,-0.03125,0.01953125,-0.01171875,0.0,0.0,0.0
46093975,36670,0,1.001953125,-0.03125,0.015625,-0.015625,0.0,0.0,0.0
46095226,36671,0,1.001953125,-0.02734375,0.01953125,-0.0078125,0.0,0.0,0.0
46096476,36672,0,1.001953125,-0.03125,0.017578125,-0.013671875,0.0,0.0,0.0
46097728,36673,0,1.001953125,-0.03125,0.01953125,-0.01171875,0.0,0.0,0.0
46098979,36674,0,1.001953125,-0.03515625,0.01953125,-0.015625,0.0,0.0,0.0
46100229,36675,0,1.005859375,-0.029296875,0.015625,-0.013671875,0.0,0.0,0.0
46101481,36676,0,1.001953125,-0.03125,0.015625,-0.015625,0.0,0.0,0.0
46102731,36677,0,1.005859375,-0.029296875,0.017578125,-0.01171875,0.0,0.0,0.0
46103981,36678,0,1.00390625,-0.033203125,0.015625,-0.017578125,0.0,0.0,0.0
46105232,36679,0,1.01171875,-0.029296875,0.017578125,-0.01171875,0.0,0.0,0.0
46106483,36680,0,1.0,-0.033203125,0.0078125,-0.025390625,0.0,0.0,0.0
46107734,36681,0,1.00390625,-0.03515625,0.013671875,-0.021484375,0.0,0.0,0.0
46108986,36682,0,0.994140625,-0.033203125,0.0234375,-0.009765625,0.0,0.0,0.0
46110236,36683,0,1.005859375,-0.02734375,0.01171875,-0.015625,0.0,0.0,0.0
46111486,36684,0,1.0,-0.029296875,0.0078125,-0.021484375,0.0,0.0,0.0
46112737,36685,0,1.00390625,-0.02734375,0.015625,-0.01171875,0.0,0.0,0.0
46113987,36686,0,1.00390625,-0.025390625,0.013671875,-0.01171875,0.0,0.0,0.0
46115238,36687,0,1.0078125,-0.029296875,0.009765625,-0.01953125,0.0,0.0,0.0
46116489,36688,0,0.998046875,-0.029296875,0.017578125,-0.01171875,0.0,0.0,0.0
46117740,36689,0,1.00390625,-0.029296875,0.013671875,-0.015625,0.0,0.0,0.0
46118991,36690,0,1.005859375,-0.029296875,0.01171875,-0.017578125,0.0,0.0,0.0
46120241,36691,0,1.00390625,-0.03125,0.015625,-0.015625,0.0,0.0,0.0
46121492,36692,0,1.005859375,-0.033203125,0.01171875,-0.021484375,0.0,0.0,0.0
46122744,36693,0,1.0078125,-0.03125,0.01953125,-0.01171875,0.0,0.0,0.0
46123994,36694,0,1.00390625,-0.033203125,0.017578125,-0.015625,0.0,0.0,0.0
46125245,36695,0,1.00390625,-0.029296875,0.0078125,-0.021484375,0.0,0.0,0.0
46126496,36696,0,1.00390625,-0.03125,0.017578125,-0.013671875,0.0,0.0,0.0
46127747,36697,0,1.005859375,-0.03125,0.009765625,-0.021484375,0.0,0.0,0.0
46128998,36698,0,1.00390625,-0.029296875,0.009765625,-0.01953125,0.0,0.0,0.0
46130249,36699,0,1.005859375,-0.029296875,0.015625,-0.013671875,0.0,0.0,0.0
46131499,36700,0,1.00390625,-0.03125,0.013671875,-0.017578125,0.0,0.0,0.0
46132751,36701,0,0.99609375,-0.03515625,0.013671875,-0.021484375,0.0,0.0,0.0
46134002,36702,0,1.0078125,-0.029296875,0.001953125,-0.02734375,0.0,0.0,0.0
46135253,36703,0,1.0078125,-0.025390625,0.01171875,-0.013671875,0.0,0.0,0.0
46136503,36704,0,1.005859375,-0.029296875,0.01953125,-0.009765625,0.0,0.0,0.0
46137755,36705,0,1.0,-0.029296875,0.01953125,-0.009765625,0.0,0.0,0.0
46139005,36706,0,1.0078125,-0.029296875,0.01953125,-0.009765625,0.0,0.0,0.0
46140256,36707,0,1.005859375,-0.029296875,0.02734375,-0.001953125,0.0,0.0,0.0
46141506,36708,0,1.0078125,-0.03125,0.0234375,-0.0078125,0.0,0.0,0.0
46142757,36709,0,1.005859375,-0.03125,0.015625,-0.015625,0.0,0.0,0.0
46144008,36710,0,1.00390625,-0.03125,0.017578125,-0.013671875,0.0,0.0,0.0
46145258,36711,0,1.001953125,-0.03515625,0.0078125,-0.02734375,0.0,0.0,0.0
46146508,36712,0,1.0078125,-0.033203125,0.017578125,-0.015625,0.0,0.0,0.0
46147759,36713,0,1.00390625,-0.029296875,0.009765625,-0.01953125,0.0,0.0,0.0
46149009,36714,0,1.005859375,-0.03125,0.015625,-0.015625,0.0,0.0,0.0
46150259,36715,0,1.001953125,-0.029296875,0.01953125,-0.009765625,0.0,0.0,0.0
46151510,36716,0,1.0078125,-0.029296875,0.015625,-0.013671875,0.0,0.0,0.0
46152762,36717,0,1.0078125,-0.03125,0.017578125,-0.013671875,0.0,0.0,0.0
46154012,36718,0,1.0078125,-0.03125,0.01953125,-0.01171875,0.0,0.0,0.0
46155271,36719,0,1.005859375,-0.025390625,0.015625,-0.009765625,0.0,0.0,0.0
46156521,36720,0,1.00390625,-0.03125,0.01171875,-0.01953125,0.0,0.0,0.0
46157773,36721,0,1.001953125,-0.029296875,0.013671875,-0.015625,0.0,0.0,0.0
46159023,36722,0,1.009765625,-0.033203125,0.013671875,-0.01953125,0.0,0.0,0.0
46160274,36723,0,1.005859375,-0.029296875,0.025390625,-0.00390625,0.0,0.0,0.0
46161525,36724,0,1.001953125,-0.02734375,0.021484375,-0.005859375,0.0,0.0,0.0
46162776,36725,0,1.005859375,-0.03125,0.005859375,-0.025390625,0.0,0.0,0.0
46164026,36726,0,1.00390625,-0.03125,0.017578125,-0.013671875,0.0,0.0,0.0
46165276,36727,0,1.0078125,-0.025390625,0.015625,-0.009765625,0.0,0.0,0.0
46166527,36728,0,1.001953125,-0.03125,0.021484375,-0.009765625,0.0,0.0,0.0
46167778,36729,0,1.00390625,-0.03515625,0.017578125,-0.017578125,0.0,0.0,0.0
46169029,36730,0,1.005859375,-0.033203125,0.009765625,-0.0234375,0.0,0.0,0.0
46170280,36731,0,1.0,-0.02734375,0.017578125,-0.009765625,0.0,0.0,0.0
46171531,36732,0,1.001953125,-0.03125,0.021484375,-0.009765625,0.0,0.0,0.0
46172783,36733,0,1.00390625,-0.029296875,0.0078125,-0.021484375,0.0,0.0,0.0
46174034,36734,0,1.0,-0.029296875,0.017578125,-0.01171875,0.0,0.0,0.0
46175286,36735,0,1.00390625,-0.03125,0.01953125,-0.01171875,0.0,0.0,0.0
46176537,36736,0,1.001953125,-0.029296875,0.0234375,-0.005859375,0.0,0.0,0.0
46177789,36737,0,1.001953125,-0.03125,0.01953125,-0.01171875,0.0,0.0,0.0
46179039,36738,0,1.001953125,-0.029296875,0.015625,-0.013671875,0.0,0.0,0.0
46180289,36739,0,1.00390625,-0.03125,0.015625,-0.015625,0.0,0.0,0.0
46181541,36740,0,1.00390625,-0.03515625,0.017578125,-0.017578125,0.0,0.0,0.0
46182792,36741,0,1.00390625,-0.03125,0.021484375,-0.009765625,0.0,0.0,0.0
46184044,36742,0,1.0078125,-0.03125,0.01953125,-0.01171875,0.0,0.0,0.0
46185294,36743,0,1.001953125,-0.033203125,0.013671875,-0.01953125,0.0,0.0,0.0
46186544,36744,0,1.009765625,-0.025390625,0.009765625,-0.015625,0.0,0.0,0.0
46187795,36745,0,0.99609375,-0.033203125,0.015625,-0.017578125,0.0,0.0,0.0
46189045,36746,0,0.998046875,-0.02734375,0.009765625,-0.017578125,0.0,0.0,0.0
46190295,36747,0,1.0078125,-0.03125,0.0078125,-0.0234375,0.0,0.0,0.0
46191546,36748,0,0.998046875,-0.02734375,0.015625,-0.01171875,0.0,0.0,0.0
46192797,36749,0,0.998046875,-0.03125,0.00390625,-0.02734375,0.0,0.0,0.0
46194048,36750,0,1.005859375,-0.03515625,0.0078125,-0.02734375,0.0,0.0,0.0
46195299,36751,0,1.00390625,-0.02734375,0.0234375,-0.00390625,0.0,0.0,0.0
46196550,36752,0,1.005859375,-0.03125,0.013671875,-0.017578125,0.0,0.0,0.0
46197800,36753,0,1.00390625,-0.03515625,0.021484375,-0.013671875,0.0,0.0,0.0
46199052,36754,0,0.99609375,-0.029296875,0.015625,-0.013671875,0.0,0.0,0.0
46200303,36755,0,1.0,-0.03125,0.017578125,-0.013671875,0.0,0.0,0.0
46201554,36756,0,1.005859375,-0.03125,0.009765625,-0.021484375,0.0,0.0,0.0
46202805,36757,0,1.005859375,-0.029296875,0.015625,-0.013671875,0.0,0.0,0.0
46204057,36758,0,1.00390625,-0.03125,0.021484375,-0.009765625,0.0,0.0,0.0
46205308,36759,0,1.005859375,-0.033203125,0.021484375,-0.01171875,0.0,0.0,0.0
46206560,36760,0,1.001953125,-0.029296875,0.01953125,-0.009765625,0.0,0.0,0.0
46207811,36761,0,1.00390625,-0.03125,0.015625,-0.015625,0.0,0.0,0.0
46209063,36762,0,1.001953125,-0.02734375,0.015625,-0.01171875,0.0,0.0,0.0
46210314,36763,0,1.005859375,-0.03125,0.015625,-0.015625,0.0,0.0,0.0
46211565,36764,0,0.99609375,-0.03125,0.013671875,-0.017578125,0.0,0.0,0.0
46212816,36765,0,1.00390625,-0.02734375,0.017578125,-0.009765625,0.0,0.0,0.0
46214066,36766,0,0.998046875,-0.03515625,0.015625,-0.01953125,0.0,0.0,0.0
46215318,36767,0,1.0078125,-0.03125,0.017578125,-0.013671875,0.0,0.0,0.0
46216569,36768,0,1.01171875,-0.02734375,0.017578125,-0.009765625,0.0,0.0,0.0
46217820,36769,0,1.013671875,-0.037109375,0.013671875,-0.0234375,0.0,0.0,0.0
46219072,36770,0,1.009765625,-0.033203125,0.017578125,-0.015625,0.0,0.0,0.0
46220322,36771,0,1.00390625,-0.029296875,0.015625,-0.013671875,0.0,0.0,0.0
46221573,36772,0,0.998046875,-0.03125,0.013671875,-0.017578125,0.0,0.0,0.0
46222825,36773,0,1.0,-0.02734375,0.021484375,-0.005859375,0.0,0.0,0.0
46224075,36774,0,1.0,-0.03125,0.01953125,-0.01171875,0.0,0.0,0.0
46225326,36775,0,1.00390625,-0.029296875,0.017578125,-0.01171875,0.0,0.0,0.0
46226577,36776,0,1.0,-0.029296875,0.01953125,-0.009765625,0.0,0.0,0.0
46227828,36777,0,1.00390625,-0.025390625,0.01171875,-0.013671875,0.0,0.0,0.0
46229078,36778,0,1.00390625,-0.03125,0.015625,-0.015625,0.0,0.0,0.0
46230329,36779,0,1.00390625,-0.03125,0.015625,-0.015625,0.0,0.0,0.0
46231581,36780,0,1.0078125,-0.033203125,0.015625,-0.017578125,0.0,0.0,0.0
46232833,36781,0,0.998046875,-0.029296875,0.017578125,-0.01171875,0.0,0.0,0.0
46234083,36782,0,1.00390625,-0.0234375,0.01953125,-0.00390625,0.0,0.0,0.0
46235333,36783,0,1.00390625,-0.03125,0.015625,-0.015625,0.0,0.0,0.0
46236584,36784,0,1.005859375,-0.037109375,0.015625,-0.021484375,0.0,0.0,0.0
46237835,36785,0,1.00390625,-0.03515625,0.01953125,-0.015625,0.0,0.0,0.0
46239085,36786,0,1.01171875,-0.0546875,-0.001953125,-0.056640625,0.0,0.0,0.0
46240336,36787,0,0.998046875,-0.03125,0.00390625,-0.02734375,0.0,0.0,0.0
46241587,36788,0,1.00390625,-0.0234375,0.025390625,0.001953125,0.0,0.0,0.0
46242838,36789,0,1.005859375,-0.0234375,0.01953125,-0.00390625,0.0,0.0,0.0
46244090,36790,0,1.0078125,-0.029296875,0.015625,-0.013671875,0.0,0.0,0.0
46245341,36791,0,1.005859375,-0.029296875,0.005859375,-0.0234375,0.0,0.0,0.0
46246592,36792,0,0.99609375,-0.029296875,0.0078125,-0.021484375,0.0,0.0,0.0
46247844,36793,0,1.001953125,-0.03125,0.013671875,-0.017578125,0.0,0.0,0.0
46249095,36794,0,0.998046875,-0.037109375,0.017578125,-0.01953125,0.0,0.0,0.0
46250346,36795,0,0.998046875,-0.033203125,0.01953125,-0.013671875,0.0,0.0,0.0
46251597,36796,0,1.00390625,-0.03515625,0.013671875,-0.021484375,0.0,0.0,0.0
46252849,36797,0,1.001953125,-0.03125,0.015625,-0.015625,0.0,0.0,0.0
46254099,36798,0,1.0078125,-0.029296875,0.013671875,-0.015625,0.0,0.0,0.0
46255351,36799,0,0.998046875,-0.025390625,0.013671875,-0.01171875,0.0,0.0,0.0
46256602,36800,0,1.00390625,-0.029296875,0.01953125,-0.009765625,0.0,0.0,0.0
46257854,36801,0,1.0,-0.025390625,0.017578125,-0.0078125,0.0,0.0,0.0
46259104,36802,0,1.005859375,-0.029296875,0.01953125,-0.009765625,0.0,0.0,0.0
46260354,36803,0,1.001953125,-0.02734375,0.017578125,-0.009765625,0.0,0.0,0.0
46261605,36804,0,1.009765625,-0.029296875,0.01171875,-0.017578125,0.0,0.0,0.0
46262855,36805,0,1.005859375,-0.02734375,0.0234375,-0.00390625,0.0,0.0,0.0
46264107,36806,0,1.01171875,-0.03125,0.01953125,-0.01171875,0.0,0.0,0.0
46265358,36807,0,1.009765625,-0.029296875,0.017578125,-0.01171875,0.0,0.0,0.0
46266609,36808,0,0.998046875,-0.02734375,0.017578125,-0.009765625,0.0,0.0,0.0
46267859,36809,0,1.0078125,-0.02734375,0.013671875,-0.013671875,0.0,0.0,0.0
46269111,36810,0,1.009765625,-0.029296875,0.017578125,-0.01171875,0.0,0.0,0.0
46270362,36811,0,0.998046875,-0.0234375,0.015625,-0.0078125,0.0,0.0,0.0
46271613,36812,0,1.001953125,-0.02734375,0.015625,-0.01171875,0.0,0.0,0.0
46272865,36813,0,1.005859375,-0.033203125,0.0078125,-0.025390625,0.0,0.0,0.0
46274115,36814,0,1.001953125,-0.029296875,0.009765625,-0.01953125,0.0,0.0,0.0
46275365,36815,0,1.005859375,-0.02734375,0.021484375,-0.005859375,0.0,0.0,0.0
46276617,36816,0,1.01171875,-0.033203125,0.009765625,-0.0234375,0.0,0.0,0.0
46277867,36817,0,1.001953125,-0.029296875,0.017578125,-0.01171875,0.0,0.0,0.0
46279118,36818,0,0.99609375,-0.029296875,0.013671875,-0.015625,0.0,0.0,0.0
46280369,36819,0,1.00390625,-0.029296875,0.01171875,-0.017578125,0.0,0.0,0.0
46281620,36820,0,1.009765625,-0.025390625,0.01953125,-0.005859375,0.0,0.0,0.0
46282871,36821,0,1.0,-0.025390625,0.017578125,-0.0078125,0.0,0.0,0.0
46284123,36822,0,1.005859375,-0.03125,0.01953125,-0.01171875,0.0,0.0,0.0
46285374,36823,0,1.00390625,-0.029296875,0.01953125,-0.009765625,0.0,0.0,0.0
46286624,36824,0,1.0,-0.03515625,0.013671875,-0.021484375,0.0,0.0,0.0
46287875,36825,0,1.0,-0.03125,0.015625,-0.015625,0.0,0.0,0.0
46289125,36826,0,0.998046875,-0.03125,0.017578125,-0.013671875,0.0,0.0,0.0
46290375,36827,0,1.00390625,-0.03125,0.01171875,-0.01953125,0.0,0.0,0.0
46291626,36828,0,1.001953125,-0.029296875,0.01953125,-0.009765625,0.0,0.0,0.0
46292877,36829,0,1.013671875,-0.029296875,0.015625,-0.013671875,0.0,0.0,0.0
46294129,36830,0,1.00390625,-0.03515625,0.017578125,-0.017578125,0.0,0.0,0.0
46295380,36831,0,0.994140625,-0.029296875,0.021484375,-0.0078125,0.0,0.0,0.0
46296630,36832,0,1.001953125,-0.03515625,0.0078125,-0.02734375,0.0,0.0,0.0
46297881,36833,0,1.00390625,-0.025390625,0.01953125,-0.005859375,0.0,0.0,0.0
46299133,36834,0,1.013671875,-0.029296875,0.015625,-0.013671875,0.0,0.0,0.0
46300384,36835,0,1.0078125,-0.025390625,0.017578125,-0.0078125,0.0,0.0,0.0
46301634,36836,0,1.0,-0.03125,0.01171875,-0.01953125,0.0,0.0,0.0
46302886,36837,0,0.998046875,-0.033203125,0.015625,-0.017578125,0.0,0.0,0.0
46304136,36838,0,1.0,-0.03125,0.01171875,-0.01953125,0.0,0.0,0.0
46305386,36839,0,1.0,-0.029296875,0.015625,-0.013671875,0.0,0.0,0.0
46306638,36840,0,1.009765625,-0.029296875,0.015625,-0.013671875,0.0,0.0,0.0
46307888,36841,0,1.001953125,-0.029296875,0.01171875,-0.017578125,0.0,0.0,0.0
46309139,36842,0,1.001953125,-0.03125,0.015625,-0.015625,0.0,0.0,0.0
46310391,36843,0,1.0,-0.03125,0.017578125,-0.013671875,0.0,0.0,0.0
46311641,36844,0,1.00390625,-0.029296875,0.015625,-0.013671875,0.0,0.0,0.0
46312892,36845,0,1.00390625,-0.03125,0.01953125,-0.01171875,0.0,0.0,0.0
46314142,36846,0,1.005859375,-0.03125,0.017578125,-0.013671875,0.0,0.0,0.0
46315393,36847,0,1.001953125,-0.033203125,0.01953125,-0.013671875,0.0,0.0,0.0
46316645,36848,0,0.998046875,-0.03125,0.017578125,-0.013671875,0.0,0.0,0.0
46317895,36849,0,1.00390625,-0.033203125,0.021484375,-0.01171875,0.0,0.0,0.0
46319147,36850,0,1.001953125,-0.029296875,0.017578125,-0.01171875,0.0,0.0,0.0
46320397,36851,0,1.0,-0.029296875,0.021484375,-0.0078125,0.0,0.0,0.0
46321649,36852,0,1.013671875,-0.029296875,0.01953125,-0.009765625,0.0,0.0,0.0
46322899,36853,0,1.01171875,-0.02734375,0.03125,0.00390625,0.0,0.0,0.0
46324149,36854,0,0.998046875,-0.029296875,0.021484375,-0.0078125,0.0,0.0,0.0
46325399,36855,0,0.99609375,-0.03125,0.017578125,-0.013671875,0.0,0.0,0.0
46326650,36856,0,1.01171875,-0.021484375,0.025390625,0.00390625,0.0,0.0,0.0
46327902,36857,0,1.00390625,-0.02734375,0.017578125,-0.009765625,0.0,0.0,0.0
46329153,36858,0,1.0,-0.02734375,0.017578125,-0.009765625,0.0,0.0,0.0
46330404,36859,0,1.001953125,-0.03125,0.017578125,-0.013671875,0.0,0.0,0.0
46331654,36860,0,1.0,-0.029296875,0.015625,-0.013671875,0.0,0.0,0.0
46332904,36861,0,1.005859375,-0.02734375,0.017578125,-0.009765625,0.0,0.0,0.0
46334155,36862,0,0.998046875,-0.025390625,0.017578125,-0.0078125,0.0,0.0,0.0
46335407,36863,0,1.005859375,-0.03515625,0.0078125,-0.02734375,0.0,0.0,0.0
46336657,36864,0,1.0,-0.02734375,0.021484375,-0.005859375,0.0,0.0,0.0
46337909,36865,0,1.005859375,-0.025390625,0.017578125,-0.0078125,0.0,0.0,0.0
46339159,36866,0,0.998046875,-0.03125,0.013671875,-0.017578125,0.0,0.0,0.0
46340409,36867,0,1.00390625,-0.029296875,0.017578125,-0.01171875,0.0,0.0,0.0
46341661,36868,0,1.005859375,-0.033203125,0.017578125,-0.015625,0.0,0.0,0.0
46342911,36869,0,1.0,-0.03125,0.01953125,-0.01171875,0.0,0.0,0.0
46344161,36870,0,0.998046875,-0.03515625,0.009765625,-0.025390625,0.0,0.0,0.0
46345411,36871,0,1.0078125,-0.03515625,0.013671875,-0.021484375,0.0,0.0,0.0
46346663,36872,0,1.005859375,-0.03125,0.015625,-0.015625,0.0,0.0,0.0
46347913,36873,0,1.0234375,-0.02734375,0.017578125,-0.009765625,0.0,0.0,0.0
46349164,36874,0,0.998046875,-0.02734375,0.021484375,-0.005859375,0.0,0.0,0.0
46350415,36875,0,1.01171875,-0.03125,0.025390625,-0.005859375,0.0,0.0,0.0
46351666,36876,0,1.00390625,-0.029296875,0.017578125,-0.01171875,0.0,0.0,0.0
46352916,36877,0,1.00390625,-0.029296875,0.02734375,-0.001953125,0.0,0.0,0.0
46354167,36878,0,0.994140625,-0.033203125,0.021484375,-0.01171875,0.0,0.0,0.0
46355417,36879,0,1.001953125,-0.029296875,0.013671875,-0.015625,0.0,0.0,0.0
46356668,36880,0,1.001953125,-0.03125,0.013671875,-0.017578125,0.0,0.0,0.0
46357920,36881,0,1.001953125,-0.033203125,0.01953125,-0.013671875,0.0,0.0,0.0
46359171,36882,0,1.005859375,-0.033203125,0.013671875,-0.01953125,0.0,0.0,0.0
46360421,36883,0,1.0078125,-0.03125,0.013671875,-0.017578125,0.0,0.0,0.0
46361672,36884,0,1.005859375,-0.03125,0.00390625,-0.02734375,0.0,0.0,0.0
46362924,36885,0,1.001953125,-0.03125,0.015625,-0.015625,0.0,0.0,0.0
46364174,36886,0,1.0,-0.029296875,0.021484375,-0.0078125,0.0,0.0,0.0
46365425,36887,0,1.0,-0.03125,0.015625,-0.015625,0.0,0.0,0.0
46366677,36888,0,1.009765625,-0.03125,0.013671875,-0.017578125,0.0,0.0,0.0
46367927,36889,0,0.99609375,-0.03125,0.013671875,-0.017578125,0.0,0.0,0.0
46369177,36890,0,1.0,-0.033203125,0.013671875,-0.01953125,0.0,0.0,0.0
46370429,36891,0,1.00390625,-0.033203125,0.01953125,-0.013671875,0.0,0.0,0.0
46371679,36892,0,1.001953125,-0.02734375,0.015625,-0.01171875,0.0,0.0,0.0
46372931,36893,0,1.0,-0.03125,0.01171875,-0.01953125,0.0,0.0,0.0
46374181,36894,0,1.00390625,-0.02734375,0.005859375,-0.021484375,0.0,0.0,0.0
46375431,36895,0,1.001953125,-0.0234375,0.01953125,-0.00390625,0.0,0.0,0.0
46376683,36896,0,1.00390625,-0.03125,0.021484375,-0.009765625,0.0,0.0,0.0
46377933,36897,0,1.001953125,-0.029296875,0.0078125,-0.021484375,0.0,0.0,0.0
46379183,36898,0,1.01171875,-0.029296875,0.015625,-0.013671875,0.0,0.0,0.0
46380434,36899,0,1.00390625,-0.033203125,0.009765625,-0.0234375,0.0,0.0,0.0
46381685,36900,0,1.00390625,-0.03125,0.01171875,-0.01953125,0.0,0.0,0.0
46382936,36901,0,0.99609375,-0.0234375,0.021484375,-0.001953125,0.0,0.0,0.0
46384186,36902,0,1.00390625,-0.029296875,0.015625,-0.013671875,0.0,0.0,0.0
46385437,36903,0,1.0078125,-0.029296875,0.017578125,-0.01171875,0.0,0.0,0.0
46386687,36904,0,1.005859375,-0.03125,0.01171875,-0.01953125,0.0,0.0,0.0
46387937,36905,0,1.0,-0.03125,0.01171875,-0.01953125,0.0,0.0,0.0
46389188,36906,0,1.00390625,-0.029296875,0.013671875,-0.015625,0.0,0.0,0.0
46390440,36907,0,1.0078125,-0.03125,0.01171875,-0.01953125,0.0,0.0,0.0
46391690,36908,0,1.0,-0.029296875,0.01171875,-0.017578125,0.0,0.0,0.0
46392942,36909,0,1.001953125,-0.03125,0.013671875,-0.017578125,0.0,0.0,0.0
46394193,36910,0,1.0,-0.029296875,0.013671875,-0.015625,0.0,0.0,0.0
46395445,36911,0,1.0,-0.0234375,0.013671875,-0.009765625,0.0,0.0,0.0
46396695,36912,0,1.005859375,-0.029296875,0.009765625,-0.01953125,0.0,0.0,0.0
46397947,36913,0,1.0078125,-0.029296875,0.015625,-0.013671875,0.0,0.0,0.0
46399198,36914,0,0.998046875,-0.033203125,0.021484375,-0.01171875,0.0,0.0,0.0
46400450,36915,0,1.0078125,-0.029296875,0.01171875,-0.017578125,0.0,0.0,0.0
46401700,36916,0,1.001953125,-0.03125,0.013671875,-0.017578125,0.0,0.0,0.0
46402952,36917,0,1.001953125,-0.029296875,0.021484375,-0.0078125,0.0,0.0,0.0
46404203,36918,0,1.00390625,-0.02734375,0.015625,-0.01171875,0.0,0.0,0.0
46405454,36919,0,1.005859375,-0.03125,0.01953125,-0.01171875,0.0,0.0,0.0
46406705,36920,0,1.017578125,-0.02734375,0.01953125,-0.0078125,0.0,0.0,0.0
46407957,36921,0,1.001953125,-0.029296875,0.01171875,-0.017578125,0.0,0.0,0.0
46409207,36922,0,1.009765625,-0.02734375,0.017578125,-0.009765625,0.0,0.0,0.0
46410459,36923,0,1.0078125,-0.02734375,0.013671875,-0.013671875,0.0,0.0,0.0
46411709,36924,0,1.0,-0.02734375,0.013671875,-0.013671875,0.0,0.0,0.0
46412959,36925,0,1.001953125,-0.03125,0.015625,-0.015625,0.0,0.0,0.0
46414209,36926,0,0.998046875,-0.02734375,0.015625,-0.01171875,0.0,0.0,0.0
46415459,36927,0,1.0078125,-0.033203125,0.015625,-0.017578125,0.0,0.0,0.0
46416711,36928,0,1.001953125,-0.033203125,0.017578125,-0.015625,0.0,0.0,0.0
46417961,36929,0,1.0,-0.033203125,0.013671875,-0.01953125,0.0,0.0,0.0
46419213,36930,0,1.009765625,-0.029296875,0.015625,-0.013671875,0.0,0.0,0.0
46420464,36931,0,1.001953125,-0.033203125,0.017578125,-0.015625,0.0,0.0,0.0
46421715,36932,0,1.00390625,-0.03125,0.01953125,-0.01171875,0.0,0.0,0.0
46422966,36933,0,1.0078125,-0.03125,0.015625,-0.015625,0.0,0.0,0.0
46424216,36934,0,1.001953125,-0.037109375,0.01171875,-0.025390625,0.0,0.0,0.0
46425467,36935,0,1.0078125,-0.033203125,0.015625,-0.017578125,0.0,0.0,0.0
46426718,36936,0,0.998046875,-0.03125,0.021484375,-0.009765625,0.0,0.0,0.0
46427968,36937,0,1.005859375,-0.025390625,0.013671875,-0.01171875,0.0,0.0,0.0
46429219,36938,0,1.005859375,-0.029296875,0.017578125,-0.01171875,0.0,0.0,0.0
46430470,36939,0,1.00390625,-0.03125,0.01953125,-0.01171875,0.0,0.0,0.0
46431721,36940,0,1.009765625,-0.029296875,0.0234375,-0.005859375,0.0,0.0,0.0
46432971,36941,0,1.001953125,-0.025390625,0.017578125,-0.0078125,0.0,0.0,0.0
46434223,36942,0,1.005859375,-0.029296875,0.013671875,-0.015625,0.0,0.0,0.0
46435473,36943,0,0.99609375,-0.03125,0.01953125,-0.01171875,0.0,0.0,0.0
46436723,36944,0,1.0078125,-0.029296875,0.013671875,-0.015625,0.0,0.0,0.0
46437975,36945,0,1.005859375,-0.029296875,0.017578125,-0.01171875,0.0,0.0,0.0
46439226,36946,0,1.0,-0.02734375,0.01171875,-0.015625,0.0,0.0,0.0
46440476,36947,0,1.00390625,-0.029296875,0.01953125,-0.009765625,0.0,0.0,0.0
46441728,36948,0,1.00390625,-0.037109375,0.013671875,-0.0234375,0.0,0.0,0.0
46442979,36949,0,1.001953125,-0.03125,0.013671875,-0.017578125,0.0,0.0,0.0
46444229,36950,0,1.005859375,-0.029296875,0.013671875,-0.015625,0.0,0.0,0.0
46445481,36951,0,1.009765625,-0.02734375,0.01953125,-0.0078125,0.0,0.0,0.0
46446731,36952,0,1.005859375,-0.033203125,0.017578125,-0.015625,0.0,0.0,0.0
46447981,36953,0,1.0078125,-0.029296875,0.015625,-0.013671875,0.0,0.0,0.0
46449232,36954,0,0.99609375,-0.03125,0.015625,-0.015625,0.0,0.0,0.0
46450483,36955,0,1.005859375,-0.033203125,0.01171875,-0.021484375,0.0,0.0,0.0
46451734,36956,0,1.001953125,-0.03125,0.009765625,-0.021484375,0.0,0.0,0.0
46452986,36957,0,1.001953125,-0.02734375,0.00390625,-0.0234375,0.0,0.0,0.0
46454236,36958,0,1.005859375,-0.033203125,0.005859375,-0.02734375,0.0,0.0,0.0
46455486,36959,0,1.0078125,-0.03125,0.01953125,-0.01171875,0.0,0.0,0.0
46456737,36960,0,1.017578125,-0.03515625,0.013671875,-0.021484375,0.0,0.0,0.0
46457987,36961,0,0.99609375,-0.037109375,0.015625,-0.021484375,0.0,0.0,0.0
46459238,36962,0,1.0078125,-0.02734375,0.009765625,-0.017578125,0.0,0.0,0.0
46460489,36963,0,1.00390625,-0.03125,0.017578125,-0.013671875,0.0,0.0,0.0
46461740,36964,0,1.005859375,-0.03515625,0.015625,-0.01953125,0.0,0.0,0.0
46462991,36965,0,1.0,-0.029296875,0.013671875,-0.015625,0.0,0.0,0.0
46464241,36966,0,1.005859375,-0.03515625,0.013671875,-0.021484375,0.0,0.0,0.0
46465492,36967,0,1.005859375,-0.03125,0.009765625,-0.021484375,0.0,0.0,0.0
46466744,36968,0,1.00390625,-0.029296875,0.017578125,-0.01171875,0.0,0.0,0.0
46467994,36969,0,1.001953125,-0.03515625,0.017578125,-0.017578125,0.0,0.0,0.0
46469245,36970,0,1.00390625,-0.029296875,0.017578125,-0.01171875,0.0,0.0,0.0
46470496,36971,0,1.005859375,-0.033203125,0.013671875,-0.01953125,0.0,0.0,0.0
46471747,36972,0,1.005859375,-0.033203125,0.021484375,-0.01171875,0.0,0.0,0.0
46472998,36973,0,1.00390625,-0.033203125,0.015625,-0.017578125,0.0,0.0,0.0
46474249,36974,0,1.009765625,-0.03125,0.01171875,-0.01953125,0.0,0.0,0.0
46475499,36975,0,1.005859375,-0.02734375,0.017578125,-0.009765625,0.0,0.0,0.0
46476751,36976,0,1.001953125,-0.033203125,0.01953125,-0.013671875,0.0,0.0,0.0
46478002,36977,0,1.0,-0.029296875,0.017578125,-0.01171875,0.0,0.0,0.0
46479253,36978,0,1.0,-0.025390625,0.017578125,-0.0078125,0.0,0.0,0.0
46480503,36979,0,1.001953125,-0.033203125,0.017578125,-0.015625,0.0,0.0,0.0
46481755,36980,0,1.005859375,-0.03125,0.01953125,-0.01171875,0.0,0.0,0.0
46483005,36981,0,1.009765625,-0.025390625,0.009765625,-0.015625,0.0,0.0,0.0
46484256,36982,0,1.005859375,-0.025390625,0.01171875,-0.013671875,0.0,0.0,0.0
46485506,36983,0,1.001953125,-0.033203125,0.015625,-0.017578125,0.0,0.0,0.0
46486757,36984,0,1.0078125,-0.025390625,0.021484375,-0.00390625,0.0,0.0,0.0
46488008,36985,0,0.99609375,-0.029296875,0.013671875,-0.015625,0.0,0.0,0.0
46489258,36986,0,1.00390625,-0.03125,0.013671875,-0.017578125,0.0,0.0,0.0
46490508,36987,0,1.00390625,-0.02734375,0.017578125,-0.009765625,0.0,0.0,0.0
46491759,36988,0,0.998046875,-0.03125,0.0078125,-0.0234375,0.0,0.0,0.0
46493009,36989,0,1.00390625,-0.033203125,0.017578125,-0.015625,0.0,0.0,0.0
46494259,36990,0,1.005859375,-0.029296875,0.01171875,-0.017578125,0.0,0.0,0.0
46495510,36991,0,1.005859375,-0.02734375,0.015625,-0.01171875,0.0,0.0,0.0
46496762,36992,0,1.001953125,-0.02734375,0.01953125,-0.0078125,0.0,0.0,0.0
46498012,36993,0,1.001953125,-0.03125,0.017578125,-0.013671875,0.0,0.0,0.0
46499271,36994,0,0.998046875,-0.029296875,0.013671875,-0.015625,0.0,0.0,0.0
46500521,36995,0,1.00390625,-0.029296875,0.021484375,-0.0078125,0.0,0.0,0.0
46501773,36996,0,1.0,-0.029296875,0.0078125,-0.021484375,0.0,0.0,0.0
46503023,36997,0,1.005859375,-0.029296875,0.013671875,-0.015625,0.0,0.0,0.0
46504274,36998,0,1.009765625,-0.03125,0.01171875,-0.01953125,0.0,0.0,0.0
46505525,36999,0,1.0078125,-0.03515625,0.01171875,-0.0234375,0.0,0.0,0.0
46506776,37000,0,1.00390625,-0.025390625,0.021484375,-0.00390625,0.0,0.0,0.0
46508026,37001,0,0.99609375,-0.02734375,0.017578125,-0.009765625,0.0,0.0,0.0
46509276,37002,0,1.0,-0.03515625,0.017578125,-0.017578125,0.0,0.0,0.0
46510527,37003,0,1.013671875,-0.0234375,0.01171875,-0.01171875,0.0,0.0,0.0
46511778,37004,0,1.001953125,-0.029296875,0.015625,-0.013671875,0.0,0.0,0.0
46513029,37005,0,1.00390625,-0.029296875,0.013671875,-0.015625,0.0,0.0,0.0
46514280,37006,0,1.0078125,-0.02734375,0.017578125,-0.009765625,0.0,0.0,0.0
46515531,37007,0,1.001953125,-0.033203125,0.013671875,-0.01953125,0.0,0.0,0.0
46516783,37008,0,1.009765625,-0.03125,0.009765625,-0.021484375,0.0,0.0,0.0
46518034,37009,0,1.0078125,-0.03125,0.01171875,-0.01953125,0.0,0.0,0.0
46519286,37010,0,1.005859375,-0.037109375,0.0234375,-0.013671875,0.0,0.0,0.0
46520537,37011,0,1.001953125,-0.02734375,0.009765625,-0.017578125,0.0,0.0,0.0
46521789,37012,0,1.001953125,-0.029296875,0.01953125,-0.009765625,0.0,0.0,0.0
46523039,37013,0,1.005859375,-0.03125,0.005859375,-0.025390625,0.0,0.0,0.0
46524289,37014,0,0.998046875,-0.029296875,0.015625,-0.013671875,0.0,0.0,0.0
46525541,37015,0,1.00390625,-0.029296875,0.021484375,-0.0078125,0.0,0.0,0.0
46526792,37016,0,1.005859375,-0.033203125,0.021484375,-0.01171875,0.0,0.0,0.0
46528044,37017,0,0.998046875,-0.029296875,0.017578125,-0.01171875,0.0,0.0,0.0
46529294,37018,0,1.005859375,-0.03125,0.013671875,-0.017578125,0.0,0.0,0.0
46530544,37019,0,1.00390625,-0.025390625,0.01953125,-0.005859375,0.0,0.0,0.0
46531795,37020,0,1.005859375,-0.02734375,0.017578125,-0.009765625,0.0,0.0,0.0
46533045,37021,0,1.00390625,-0.03125,0.015625,-0.015625,0.0,0.0,0.0
46534295,37022,0,1.009765625,-0.03125,0.009765625,-0.021484375,0.0,0.0,0.0
46535546,37023,0,1.001953125,-0.02734375,0.01171875,-0.015625,0.0,0.0,0.0
46536797,37024,0,0.994140625,-0.02734375,0.021484375,-0.005859375,0.0,0.0,0.0
46538048,37025,0,0.994140625,-0.029296875,0.009765625,-0.01953125,0.0,0.0,0.0
46539299,37026,0,0.99609375,-0.029296875,0.021484375,-0.0078125,0.0,0.0,0.0
46540550,37027,0,0.998046875,-0.03125,0.013671875,-0.017578125,0.0,0.0,0.0
46541800,37028,0,1.001953125,-0.03125,0.013671875,-0.017578125,0.0,0.0,0.0
46543052,37029,0,1.005859375,-0.029296875,0.01953125,-0.009765625,0.0,0.0,0.0
46544303,37030,0,1.00390625,-0.02734375,0.013671875,-0.013671875,0.0,0.0,0.0
46545554,37031,0,1.00390625,-0.02734375,0.017578125,-0.009765625,0.0,0.0,0.0
46546805,37032,0,1.005859375,-0.033203125,0.017578125,-0.015625,0.0,0.0,0.0
46548057,37033,0,1.005859375,-0.02734375,0.013671875,-0.013671875,0.0,0.0,0.0
46549308,37034,0,1.0,-0.03125,0.015625,-0.015625,0.0,0.0,0.0
46550560,37035,0,1.005859375,-0.02734375,0.0234375,-0.00390625,0.0,0.0,0.0
46551811,37036,0,1.001953125,-0.025390625,0.01953125,-0.005859375,0.0,0.0,0.0
46553063,37037,0,1.001953125,-0.029296875,0.021484375,-0.0078125,0.0,0.0,0.0
46554314,37038,0,1.005859375,-0.02734375,0.01953125,-0.0078125,0.0,0.0,0.0
46555565,37039,0,1.001953125,-0.03125,0.015625,-0.015625,0.0,0.0,0.0
46556816,37040,0,1.005859375,-0.03125,0.021484375,-0.009765625,0.0,0.0,0.0
46558066,37041,0,1.0078125,-0.029296875,0.015625,-0.013671875,0.0,0.0,0.0
46559318,37042,0,1.00390625,-0.029296875,0.017578125,-0.01171875,0.0,0.0,0.0
46560569,37043,0,1.009765625,-0.029296875,0.013671875,-0.015625,0.0,0.0,0.0
46561819,37044,0,0.99609375,-0.029296875,0.017578125,-0.01171875,0.0,0.0,0.0
46563070,37045,0,1.0,-0.029296875,0.015625,-0.013671875,0.0,0.0,0.0
46564321,37046,0,1.0,-0.029296875,0.0234375,-0.005859375,0.0,0.0,0.0
46565572,37047,0,1.0,-0.03125,0.017578125,-0.013671875,0.0,0.0,0.0
46566823,37048,0,0.9921875,-0.02734375,0.013671875,-0.013671875,0.0,0.0,0.0
46568074,37049,0,1.0,-0.033203125,0.009765625,-0.0234375,0.0,0.0,0.0
46569325,37050,0,1.001953125,-0.03125,0.01953125,-0.01171875,0.0,0.0,0.0
46570575,37051,0,1.005859375,-0.033203125,0.017578125,-0.015625,0.0,0.0,0.0
46571825,37052,0,1.001953125,-0.03515625,0.015625,-0.01953125,0.0,0.0,0.0
46573076,37053,0,1.005859375,-0.033203125,0.017578125,-0.015625,0.0,0.0,0.0
46574326,37054,0,1.009765625,-0.033203125,0.015625,-0.017578125,0.0,0.0,0.0
46575577,37055,0,1.005859375,-0.029296875,0.021484375,-0.0078125,0.0,0.0,0.0
46576828,37056,0,1.001953125,-0.033203125,0.01171875,-0.021484375,0.0,0.0,0.0
46578078,37057,0,1.00390625,-0.03125,0.017578125,-0.013671875,0.0,0.0,0.0
46579329,37058,0,0.998046875,-0.033203125,0.015625,-0.017578125,0.0,0.0,0.0
46580581,37059,0,1.0,-0.029296875,0.01171875,-0.017578125,0.0,0.0,0.0
46581833,37060,0,1.00390625,-0.03515625,0.013671875,-0.021484375,0.0,0.0,0.0
46583083,37061,0,1.001953125,-0.033203125,0.013671875,-0.01953125,0.0,0.0,0.0
46584333,37062,0,1.0,-0.041015625,0.013671875,-0.02734375,0.0,0.0,0.0
46585584,37063,0,1.0,-0.05078125,0.005859375,-0.044921875,0.0,0.0,0.0
46586835,37064,0,0.998046875,-0.091796875,-0.015625,-0.107421875,0.0,0.0,0.0
46588085,37065,0,0.984375,-0.150390625,-0.056640625,-0.20703125,0.0,0.0,0.0
46589336,37066,0,0.794921875,-2.421875,-1.84375,-4.265625,0.0,0.0,0.0
46590587,37067,0,0.654296875,-1.130859375,0.1875,-0.943359375,0.0,0.0,0.0
46591838,37068,0,1.341796875,1.990234375,0.97265625,2.962890625,0.0,0.0,0.0
46593090,37069,0,1.06640625,1.978515625,1.150390625,3.12890625,0.0,0.0,0.0
46594341,37070,0,1.23046875,0.3671875,0.17578125,0.54296875,0.0,0.0,0.0
46595592,37071,0,0.771484375,-0.65234375,-0.181640625,-0.833984375,0.0,0.0,0.0
46596844,37072,0,1.005859375,-0.68359375,-0.43359375,-1.1171875,0.0,0.0,0.0
46598095,37073,0,1.015625,-0.341796875,-0.1953125,-0.537109375,0.0,0.0,0.0
46599346,37074,0,0.822265625,-0.068359375,0.0625,-0.005859375,0.0,0.0,0.0
46600597,37075,0,1.140625,0.080078125,0.087890625,0.16796875,0.0,0.0,0.0
46601849,37076,0,0.966796875,0.029296875,0.099609375,0.12890625,0.0,0.0,0.0
46603099,37077,0,1.01953125,-0.12109375,0.009765625,-0.111328125,0.0,0.0,0.0
46604351,37078,0,0.943359375,-0.2578125,-0.0546875,-0.3125,0.0,0.0,0.0
46605602,37079,0,1.05078125,-0.427734375,-0.21875,-0.646484375,0.0,0.0,0.0
46606854,37080,0,0.8515625,-0.322265625,-0.1328125,-0.455078125,0.0,0.0,0.0
46608104,37081,0,1.041015625,-0.19140625,-0.05078125,-0.2421875,0.0,0.0,0.0
46609354,37082,0,1.04296875,-0.23828125,-0.12890625,-0.3671875,0.0,0.0,0.0
46610605,37083,0,0.939453125,-0.580078125,-0.208984375,-0.7890625,0.0,0.0,0.0
46611855,37084,0,1.220703125,-1.037109375,-0.240234375,-1.27734375,0.0,0.0,0.0
46613107,37085,0,1.03125,-1.3203125,-0.5546875,-1.875,0.0,0.0,0.0
46614358,37086,0,1.056640625,-1.068359375,-0.447265625,-1.515625,0.0,0.0,0.0
46615609,37087,0,0.9453125,-0.58203125,-0.25,-0.83203125,0.0,0.0,0.0
46616859,37088,0,1.0390625,-0.064453125,-0.087890625,-0.15234375,0.0,0.0,0.0
46618111,37089,0,0.951171875,-0.26171875,-0.095703125,-0.357421875,0.0,0.0,0.0
46619362,37090,0,0.876953125,-2.126953125,-4.0,-6.126953125,0.0,0.0,0.0
46620613,37091,0,0.08203125,-4.0,-4.0,-8.0,0.0,0.0,0.0
46621865,37092,0,-0.607421875,-4.0,-2.912109375,-6.912109375,0.0,0.0,0.0
46623115,37093,0,1.37890625,0.7890625,-3.552734375,-2.763671875,0.0,0.0,0.0
46624365,37094,0,1.416015625,3.998046875,-0.904296875,3.09375,0.0,0.0,0.0
46625617,37095,0,1.275390625,3.998046875,1.419921875,5.41796875,0.0,0.0,0.0
46626867,37096,0,1.626953125,3.998046875,3.72265625,7.720703125,0.0,0.0,0.0
46628118,37097,0,0.94140625,3.998046875,3.998046875,7.99609375,0.0,0.0,0.0
46629369,37098,0,1.486328125,3.998046875,3.998046875,7.99609375,0.0,0.0,0.0
46630620,37099,0,1.06640625,3.998046875,3.2421875,7.240234375,0.0,0.0,0.0
46631871,37100,0,1.095703125,3.998046875,1.7421875,5.740234375,0.0,0.0,0.0
46633123,37101,0,1.041015625,0.59765625,-0.0859375,0.51171875,0.0,0.0,0.0
46634374,37102,0,1.0625,-3.0390625,-1.5546875,-4.59375,0.0,0.0,0.0
46635624,37103,0,0.962890625,-4.0,-2.20703125,-6.20703125,0.0,0.0,0.0
46636875,37104,0,0.595703125,-4.0,-2.546875,-6.546875,0.0,0.0,0.0
46638125,37105,0,0.814453125,-4.0,-2.609375,-6.609375,0.0,0.0,0.0
46639375,37106,0,0.654296875,-4.0,-2.087890625,-6.087890625,0.0,0.0,0.0
46640626,37107,0,0.76171875,-3.556640625,-1.525390625,-5.08203125,0.0,0.0,0.0
46641877,37108,0,1.109375,-1.14453125,-0.80859375,-1.953125,0.0,0.0,0.0
46643129,37109,0,1.234375,1.09375,0.05078125,1.14453125,0.0,0.0,0.0
46644380,37110,0,1.208984375,2.890625,0.79296875,3.68359375,0.0,0.0,0.0
46645630,37111,0,1.13671875,3.876953125,1.20703125,5.083984375,0.0,0.0,0.0
46646881,37112,0,1.17578125,3.998046875,1.513671875,5.51171875,0.0,0.0,0.0
46648133,37113,0,0.865234375,3.599609375,1.5078125,5.107421875,0.0,0.0,0.0
46649384,37114,0,0.912109375,2.55078125,1.138671875,3.689453125,0.0,0.0,0.0
46650634,37115,0,1.14453125,1.212890625,0.482421875,1.6953125,0.0,0.0,0.0
46651886,37116,0,1.025390625,-0.15234375,-0.033203125,-0.185546875,0.0,0.0,0.0
46653136,37117,0,1.037109375,-1.271484375,-0.50390625,-1.775390625,0.0,0.0,0.0
46654386,37118,0,1.115234375,-2.080078125,-0.80859375,-2.888671875,0.0,0.0,0.0
46655638,37119,0,0.90625,-2.400390625,-0.859375,-3.259765625,0.0,0.0,0.0
46656888,37120,0,0.78515625,-2.25390625,-0.765625,-3.01953125,0.0,0.0,0.0
46658139,37121,0,0.8515625,-1.71875,-0.62109375,-2.33984375,0.0,0.0,0.0
46659391,37122,0,0.966796875,-0.966796875,-0.40625,-1.373046875,0.0,0.0,0.0
46660641,37123,0,0.95703125,-0.107421875,-0.0703125,-0.177734375,0.0,0.0,0.0
46661892,37124,0,1.138671875,0.634765625,0.14453125,0.779296875,0.0,0.0,0.0
46663142,37125,0,1.189453125,1.140625,0.341796875,1.482421875,0.0,0.0,0.0
46664393,37126,0,1.025390625,1.390625,0.54296875,1.93359375,0.0,0.0,0.0
46665645,37127,0,1.009765625,1.349609375,0.56640625,1.916015625,0.0,0.0,0.0
46666895,37128,0,0.986328125,1.064453125,0.470703125,1.53515625,0.0,0.0,0.0
46668147,37129,0,0.931640625,0.63671875,0.328125,0.96484375,0.0,0.0,0.0
46669397,37130,0,0.947265625,0.12890625,0.12109375,0.25,0.0,0.0,0.0
46670649,37131,0,1.0703125,-0.31640625,-0.1171875,-0.43359375,0.0,0.0,0.0
46671899,37132,0,1.080078125,-0.654296875,-0.2578125,-0.912109375,0.0,0.0,0.0
46673149,37133,0,0.98828125,-0.8203125,-0.298828125,-1.119140625,0.0,0.0,0.0
46674399,37134,0,1.03515625,-0.822265625,-0.2109375,-1.033203125,0.0,0.0,0.0
46675650,37135,0,0.935546875,-0.396484375,-0.083984375,-0.48046875,0.0,0.0,0.0
46676902,37136,0,0.9609375,-0.1015625,-0.015625,-0.1171875,0.0,0.0,0.0
46678153,37137,0,1.037109375,0.1640625,0.060546875,0.224609375,0.0,0.0,0.0
46679404,37138,0,1.06640625,0.375,0.138671875,0.513671875,0.0,0.0,0.0
46680654,37139,0,1.083984375,0.482421875,0.185546875,0.66796875,0.0,0.0,0.0
46681904,37140,0,1.091796875,0.49609375,0.181640625,0.677734375,0.0,0.0,0.0
46683155,37141,0,0.978515625,0.416015625,0.2109375,0.626953125,0.0,0.0,0.0
46684407,37142,0,0.923828125,0.265625,0.1875,0.453125,0.0,0.0,0.0
46685657,37143,0,0.96484375,0.0859375,0.08984375,0.17578125,0.0,0.0,0.0
46686909,37144,0,0.96875,-0.076171875,0.015625,-0.060546875,0.0,0.0,0.0
46688159,37145,0,1.025390625,-0.212890625,-0.056640625,-0.26953125,0.0,0.0,0.0
46689409,37146,0,1.076171875,-0.28125,-0.115234375,-0.396484375,0.0,0.0,0.0
46690661,37147,0,1.060546875,-0.298828125,-0.11328125,-0.412109375,0.0,0.0,0.0
46691911,37148,0,0.986328125,-0.2578125,-0.064453125,-0.322265625,0.0,0.0,0.0
46693161,37149,0,0.95703125,-0.162109375,-0.029296875,-0.19140625,0.0,0.0,0.0
46694411,37150,0,0.958984375,-0.056640625,0.017578125,-0.0390625,0.0,0.0,0.0
46695663,37151,0,0.9453125,0.0390625,0.06640625,0.10546875,0.0,0.0,0.0
46696913,37152,0,1.01953125,0.12109375,0.072265625,0.193359375,0.0,0.0,0.0
46698164,37153,0,1.07421875,0.166015625,0.0546875,0.220703125,0.0,0.0,0.0
46699415,37154,0,1.064453125,0.1640625,0.0625,0.2265625,0.0,0.0,0.0
46700666,37155,0,1.033203125,0.119140625,0.072265625,0.19140625,0.0,0.0,0.0
46701916,37156,0,1.0,0.05859375,0.064453125,0.123046875,0.0,0.0,0.0
46703167,37157,0,0.96484375,0.0,0.05078125,0.05078125,0.0,0.0,0.0
46704417,37158,0,0.943359375,-0.056640625,0.033203125,-0.0234375,0.0,0.0,0.0
46705668,37159,0,0.986328125,-0.09375,-0.00390625,-0.09765625,0.0,0.0,0.0
46706920,37160,0,1.033203125,-0.119140625,-0.03515625,-0.154296875,0.0,0.0,0.0
46708171,37161,0,1.029296875,-0.126953125,-0.0390625,-0.166015625,0.0,0.0,0.0
46709421,37162,0,1.048828125,-0.10546875,-0.04296875,-0.1484375,0.0,0.0,0.0
46710672,37163,0,1.02734375,-0.0859375,-0.0234375,-0.109375,0.0,0.0,0.0
46711924,37164,0,0.982421875,-0.05078125,0.013671875,-0.037109375,0.0,0.0,0.0
46713174,37165,0,0.955078125,-0.01953125,0.0390625,0.01953125,0.0,0.0,0.0
46714425,37166,0,0.974609375,0.0,0.03515625,0.03515625,0.0,0.0,0.0
46715677,37167,0,1.0,0.015625,0.025390625,0.041015625,0.0,0.0,0.0
46716927,37168,0,1.017578125,0.021484375,0.021484375,0.04296875,0.0,0.0,0.0
46718177,37169,0,1.0546875,0.009765625,0.005859375,0.015625,0.0,0.0,0.0
46719429,37170,0,1.044921875,-0.00390625,0.001953125,-0.001953125,0.0,0.0,0.0
46720679,37171,0,1.0,-0.033203125,0.01953125,-0.013671875,0.0,0.0,0.0
46721931,37172,0,0.974609375,-0.05078125,0.017578125,-0.033203125,0.0,0.0,0.0
46723181,37173,0,0.970703125,-0.060546875,0.009765625,-0.05078125,0.0,0.0,0.0
46724431,37174,0,0.97265625,-0.060546875,0.009765625,-0.05078125,0.0,0.0,0.0
46725683,37175,0,1.0,-0.060546875,-0.013671875,-0.07421875,0.0,0.0,0.0
46726933,37176,0,1.03515625,-0.060546875,0.0,-0.060546875,0.0,0.0,0.0
46728183,37177,0,1.033203125,-0.041015625,-0.001953125,-0.04296875,0.0,0.0,0.0
46729434,37178,0,1.015625,-0.0234375,0.015625,-0.0078125,0.0,0.0,0.0
46730685,37179,0,0.970703125,-0.01171875,0.03125,0.01953125,0.0,0.0,0.0
46731936,37180,0,0.974609375,-0.00390625,0.03125,0.02734375,0.0,0.0,0.0
46733186,37181,0,1.00390625,-0.009765625,0.017578125,0.0078125,0.0,0.0,0.0
46734437,37182,0,1.02734375,-0.009765625,0.013671875,0.00390625,0.0,0.0,0.0
46735687,37183,0,1.029296875,-0.01171875,0.01171875,0.0,0.0,0.0,0.0
46736937,37184,0,1.03515625,-0.013671875,0.0078125,-0.005859375,0.0,0.0,0.0
46738188,37185,0,1.013671875,-0.01171875,0.01171875,0.0,0.0,0.0,0.0
46739440,37186,0,0.982421875,-0.0234375,0.021484375,-0.001953125,0.0,0.0,0.0
46740690,37187,0,0.98046875,-0.025390625,0.029296875,0.00390625,0.0,0.0,0.0
46741942,37188,0,0.990234375,-0.029296875,0.021484375,-0.0078125,0.0,0.0,0.0
46743193,37189,0,1.001953125,-0.02734375,0.01171875,-0.015625,0.0,0.0,0.0
46744445,37190,0,1.021484375,-0.01953125,0.015625,-0.00390625,0.0,0.0,0.0
46745695,37191,0,1.033203125,-0.017578125,0.005859375,-0.01171875,0.0,0.0,0.0
46746947,37192,0,1.01171875,-0.01171875,0.021484375,0.009765625,0.0,0.0,0.0
46748198,37193,0,1.001953125,-0.00390625,0.03125,0.02734375,0.0,0.0,0.0
46749450,37194,0,0.99609375,-0.00390625,0.03515625,0.03125,0.0,0.0,0.0
46750700,37195,0,0.986328125,-0.005859375,0.033203125,0.02734375,0.0,0.0,0.0
46751952,37196,0,0.99609375,-0.009765625,0.025390625,0.015625,0.0,0.0,0.0
46753203,37197,0,1.015625,-0.015625,0.017578125,0.001953125,0.0,0.0,0.0
46754454,37198,0,1.017578125,-0.013671875,0.015625,0.001953125,0.0,0.0,0.0
46755705,37199,0,1.021484375,-0.021484375,0.021484375,0.0,0.0,0.0,0.0
46756957,37200,0,1.001953125,-0.021484375,0.02734375,0.005859375,0.0,0.0,0.0
46758207,37201,0,0.99609375,-0.0234375,0.029296875,0.005859375,0.0,0.0,0.0
46759459,37202,0,0.990234375,-0.021484375,0.029296875,0.0078125,0.0,0.0,0.0
46760709,37203,0,0.994140625,-0.021484375,0.025390625,0.00390625,0.0,0.0,0.0
46761959,37204,0,1.00390625,-0.0234375,0.015625,-0.0078125,0.0,0.0,0.0
46763209,37205,0,1.0078125,-0.01953125,0.01953125,0.0,0.0,0.0,0.0
46764459,37206,0,1.01953125,-0.021484375,0.01953125,-0.001953125,0.0,0.0,0.0
46765711,37207,0,1.015625,-0.021484375,0.015625,-0.005859375,0.0,0.0,0.0
46766961,37208,0,1.005859375,-0.021484375,0.01953125,-0.001953125,0.0,0.0,0.0
46768213,37209,0,0.9921875,-0.025390625,0.02734375,0.001953125,0.0,0.0,0.0
46769464,37210,0,1.0,-0.021484375,0.0234375,0.001953125,0.0,0.0,0.0
46770715,37211,0,1.00390625,-0.029296875,0.017578125,-0.01171875,0.0,0.0,0.0
46771966,37212,0,1.005859375,-0.033203125,0.0078125,-0.025390625,0.0,0.0,0.0
46773216,37213,0,1.015625,-0.03515625,0.009765625,-0.025390625,0.0,0.0,0.0
46774467,37214,0,1.015625,-0.029296875,0.00390625,-0.025390625,0.0,0.0,0.0
46775718,37215,0,0.998046875,-0.033203125,0.017578125,-0.015625,0.0,0.0,0.0
46776968,37216,0,1.0,-0.03515625,0.017578125,-0.017578125,0.0,0.0,0.0
46778219,37217,0,1.001953125,-0.03515625,0.01171875,-0.0234375,0.0,0.0,0.0
46779470,37218,0,0.994140625,-0.033203125,0.021484375,-0.01171875,0.0,0.0,0.0
46780721,37219,0,1.0,-0.03515625,0.013671875,-0.021484375,0.0,0.0,0.0
46781971,37220,0,1.0078125,-0.037109375,0.009765625,-0.02734375,0.0,0.0,0.0
46783223,37221,0,1.017578125,-0.0390625,-0.001953125,-0.041015625,0.0,0.0,0.0
46784473,37222,0,1.005859375,-0.037109375,0.00390625,-0.033203125,0.0,0.0,0.0
46785723,37223,0,0.99609375,-0.037109375,0.009765625,-0.02734375,0.0,0.0,0.0
46786975,37224,0,0.994140625,-0.03515625,0.01171875,-0.0234375,0.0,0.0,0.0
46788226,37225,0,0.998046875,-0.033203125,0.015625,-0.017578125,0.0,0.0,0.0
46789476,37226,0,1.009765625,-0.03125,0.0078125,-0.0234375,0.0,0.0,0.0
46790728,37227,0,1.009765625,-0.03515625,0.005859375,-0.029296875,0.0,0.0,0.0
46791979,37228,0,1.01171875,-0.03515625,0.00390625,-0.03125,0.0,0.0,0.0
46793229,37229,0,1.009765625,-0.037109375,0.0078125,-0.029296875,0.0,0.0,0.0
46794481,37230,0,0.998046875,-0.029296875,0.015625,-0.013671875,0.0,0.0,0.0
46795731,37231,0,0.994140625,-0.02734375,0.01171875,-0.015625,0.0,0.0,0.0
46796981,37232,0,1.00390625,-0.029296875,0.009765625,-0.01953125,0.0,0.0,0.0
46798232,37233,0,1.001953125,-0.03125,0.009765625,-0.021484375,0.0,0.0,0.0
46799483,37234,0,1.013671875,-0.02734375,0.01171875,-0.015625,0.0,0.0,0.0
46800734,37235,0,1.021484375,-0.02734375,0.00390625,-0.0234375,0.0,0.0,0.0
46801986,37236,0,1.0078125,-0.021484375,0.013671875,-0.0078125,0.0,0.0,0.0
46803236,37237,0,1.0,-0.02734375,0.021484375,-0.005859375,0.0,0.0,0.0
46804486,37238,0,1.0,-0.021484375,0.01953125,-0.001953125,0.0,0.0,0.0
46805737,37239,0,0.998046875,-0.021484375,0.01953125,-0.001953125,0.0,0.0,0.0
46806987,37240,0,1.001953125,-0.021484375,0.015625,-0.005859375,0.0,0.0,0.0
46808238,37241,0,1.00390625,-0.021484375,0.01953125,-0.001953125,0.0,0.0,0.0
46809489,37242,0,1.009765625,-0.015625,0.01171875,-0.00390625,0.0,0.0,0.0
46810740,37243,0,1.009765625,-0.017578125,0.01171875,-0.005859375,0.0,0.0,0.0
46811991,37244,0,1.00390625,-0.021484375,0.021484375,0.0,0.0,0.0,0.0
46813241,37245,0,1.001953125,-0.015625,0.01953125,0.00390625,0.0,0.0,0.0
46814492,37246,0,1.0,-0.013671875,0.01953125,0.005859375,0.0,0.0,0.0
46815744,37247,0,1.001953125,-0.013671875,0.0234375,0.009765625,0.0,0.0,0.0
46816994,37248,0,1.0078125,-0.01171875,0.021484375,0.009765625,0.0,0.0,0.0
46818245,37249,0,1.005859375,-0.013671875,0.01953125,0.005859375,0.0,0.0,0.0
46819496,37250,0,1.001953125,-0.015625,0.009765625,-0.005859375,0.0,0.0,0.0
46820747,37251,0,1.0078125,-0.015625,0.021484375,0.005859375,0.0,0.0,0.0
46821998,37252,0,0.998046875,-0.009765625,0.015625,0.005859375,0.0,0.0,0.0
46823249,37253,0,1.001953125,-0.009765625,0.021484375,0.01171875,0.0,0.0,0.0
46824499,37254,0,1.00390625,-0.017578125,0.0234375,0.005859375,0.0,0.0,0.0
46825751,37255,0,1.0078125,-0.017578125,0.029296875,0.01171875,0.0,0.0,0.0
46827002,37256,0,1.005859375,-0.015625,0.017578125,0.001953125,0.0,0.0,0.0
46828253,37257,0,1.0078125,-0.021484375,0.01953125,-0.001953125,0.0,0.0,0.0
46829503,37258,0,1.00390625,-0.01953125,0.0234375,0.00390625,0.0,0.0,0.0
46830755,37259,0,1.001953125,-0.021484375,0.01953125,-0.001953125,0.0,0.0,0.0
46832005,37260,0,0.998046875,-0.015625,0.013671875,-0.001953125,0.0,0.0,0.0
46833256,37261,0,1.00390625,-0.021484375,0.01953125,-0.001953125,0.0,0.0,0.0
46834506,37262,0,1.00390625,-0.02734375,0.021484375,-0.005859375,0.0,0.0,0.0
46835757,37263,0,1.005859375,-0.02734375,0.015625,-0.01171875,0.0,0.0,0.0
46837008,37264,0,1.00390625,-0.029296875,0.01953125,-0.009765625,0.0,0.0,0.0
46838258,37265,0,1.00390625,-0.025390625,0.021484375,-0.00390625,0.0,0.0,0.0
46839508,37266,0,1.00390625,-0.03125,0.017578125,-0.013671875,0.0,0.0,0.0
46840759,37267,0,1.001953125,-0.029296875,0.017578125,-0.01171875,0.0,0.0,0.0
46842009,37268,0,1.0,-0.033203125,0.013671875,-0.01953125,0.0,0.0,0.0
46843259,37269,0,1.001953125,-0.03125,0.01171875,-0.01953125,0.0,0.0,0.0
46844510,37270,0,1.009765625,-0.03515625,0.009765625,-0.025390625,0.0,0.0,0.0
46845762,37271,0,1.0078125,-0.0390625,0.0078125,-0.03125,0.0,0.0,0.0
46847012,37272,0,0.99609375,-0.03515625,0.01171875,-0.0234375,0.0,0.0,0.0
46848271,37273,0,1.001953125,-0.03515625,0.015625,-0.01953125,0.0,0.0,0.0
46849521,37274,0,0.99609375,-0.033203125,0.013671875,-0.01953125,0.0,0.0,0.0
46850773,37275,0,0.99609375,-0.03125,0.01171875,-0.01953125,0.0,0.0,0.0
46852023,37276,0,1.0,-0.029296875,0.013671875,-0.015625,0.0,0.0,0.0
46853274,37277,0,1.0078125,-0.03125,0.0078125,-0.0234375,0.0,0.0,-2.498079915958449e-28
46855776,37279,0,1.009765625,-0.037109375,0.01171875,-0.025390625,0.0,0.0,0.0
46857026,37280,0,1.0078125,-0.029296875,0.01171875,-0.017578125,0.0,0.0,0.0
46858276,37281,0,1.005859375,-0.03515625,0.021484375,-0.013671875,0.0,0.0,0.0
46859527,37282,0,0.998046875,-0.04296875,0.013671875,-0.029296875,0.0,0.0,0.0
46860778,37283,0,1.001953125,-0.0390625,0.009765625,-0.029296875,0.0,0.0,0.0
46862029,37284,0,1.001953125,-0.037109375,0.005859375,-0.03125,0.0,0.0,0.0
46863280,37285,0,1.01953125,-0.03515625,0.005859375,-0.029296875,0.0,0.0,0.0
46864531,37286,0,1.0078125,-0.03125,0.0078125,-0.0234375,0.0,0.0,0.0
46865783,37287,0,1.00390625,-0.029296875,0.009765625,-0.01953125,0.0,0.0,0.0
46867034,37288,0,1.0078125,-0.029296875,0.01171875,-0.017578125,0.0,0.0,0.0
46868286,37289,0,0.99609375,-0.025390625,0.01953125,-0.005859375,0.0,0.0,0.0
46869537,37290,0,0.99609375,-0.02734375,0.013671875,-0.013671875,0.0,0.0,0.0
46870789,37291,0,0.998046875,-0.02734375,0.01171875,-0.015625,0.0,0.0,0.0
46872039,37292,0,1.0078125,-0.0234375,0.009765625,-0.013671875,0.0,0.0,0.0
46873289,37293,0,1.0078125,-0.01953125,0.015625,-0.00390625,0.0,0.0,0.0
46874541,37294,0,1.00390625,-0.02734375,0.0078125,-0.01953125,0.0,0.0,0.0
46875792,37295,0,1.001953125,-0.0234375,0.017578125,-0.005859375,0.0,0.0,0.0
46877044,37296,0,1.00390625,-0.0234375,0.01171875,-0.01171875,0.0,0.0,0.0
46878294,37297,0,1.00390625,-0.021484375,0.013671875,-0.0078125,0.0,0.0,0.0
46879544,37298,0,0.998046875,-0.0234375,0.017578125,-0.005859375,0.0,0.0,0.0
46880795,37299,0,1.00390625,-0.01953125,0.01171875,-0.0078125,0.0,0.0,0.0
46882045,37300,0,1.001953125,-0.025390625,0.0078125,-0.017578125,0.0,0.0,0.0
46883295,37301,0,1.009765625,-0.021484375,0.013671875,-0.0078125,0.0,0.0,0.0
46884546,37302,0,1.00390625,-0.01171875,0.013671875,0.001953125,0.0,0.0,0.0
46885797,37303,0,1.009765625,-0.021484375,0.0078125,-0.013671875,0.0,0.0,0.0
46887048,37304,0,1.0078125,-0.013671875,0.01953125,0.005859375,0.0,0.0,0.0
46888299,37305,0,1.00390625,-0.017578125,0.015625,-0.001953125,0.0,0.0,0.0
46889550,37306,0,1.0,-0.01171875,0.01953125,0.0078125,0.0,0.0,0.0
46890800,37307,0,1.001953125,-0.01171875,0.021484375,0.009765625,0.0,0.0,0.0
46892052,37308,0,1.005859375,-0.01953125,0.015625,-0.00390625,0.0,0.0,0.0
46893303,37309,0,1.001953125,-0.015625,0.017578125,0.001953125,0.0,0.0,0.0
46894554,37310,0,1.005859375,-0.0234375,0.015625,-0.0078125,0.0,0.0,0.0
46895805,37311,0,1.005859375,-0.0234375,0.021484375,-0.001953125,0.0,0.0,0.0
46897057,37312,0,1.001953125,-0.029296875,0.01171875,-0.017578125,0.0,0.0,0.0
46898308,37313,0,1.001953125,-0.0234375,0.013671875,-0.009765625,0.0,0.0,0.0
46899560,37314,0,1.00390625,-0.025390625,0.015625,-0.009765625,0.0,0.0,0.0
46900811,37315,0,1.001953125,-0.0234375,0.01953125,-0.00390625,0.0,0.0,0.0
46902063,37316,0,1.001953125,-0.021484375,0.01171875,-0.009765625,0.0,0.0,0.0
46903314,37317,0,1.00390625,-0.0234375,0.01171875,-0.01171875,0.0,0.0,0.0
46904565,37318,0,1.00390625,-0.01953125,0.0234375,0.00390625,0.0,0.0,0.0
46905816,37319,0,1.00390625,-0.02734375,0.01171875,-0.015625,0.0,0.0,0.0
46907066,37320,0,0.99609375,-0.02734375,0.01171875,-0.015625,0.0,0.0,0.0
46908318,37321,0,0.998046875,-0.02734375,0.01953125,-0.0078125,0.0,0.0,0.0
46909569,37322,0,1.0078125,-0.025390625,0.01171875,-0.013671875,0.0,0.0,0.0
46910819,37323,0,1.001953125,-0.03515625,0.015625,-0.01953125,0.0,0.0,0.0
46912070,37324,0,0.998046875,-0.03125,0.0078125,-0.0234375,0.0,0.0,0.0
46913321,37325,0,1.0,-0.025390625,0.015625,-0.009765625,0.0,0.0,0.0
46914572,37326,0,1.001953125,-0.03515625,0.009765625,-0.025390625,0.0,0.0,0.0
46915823,37327,0,1.001953125,-0.037109375,0.005859375,-0.03125,0.0,0.0,0.0
46917074,37328,0,1.005859375,-0.03515625,0.01171875,-0.0234375,0.0,0.0,0.0
46918325,37329,0,0.998046875,-0.03515625,0.021484375,-0.013671875,0.0,0.0,0.0
46919575,37330,0,1.0,-0.033203125,0.015625,-0.017578125,0.0,0.0,0.0
46920825,37331,0,1.005859375,-0.033203125,0.01171875,-0.021484375,0.0,0.0,0.0
46922076,37332,0,1.00390625,-0.03515625,0.009765625,-0.025390625,0.0,0.0,0.0
46923326,37333,0,1.009765625,-0.033203125,0.017578125,-0.015625,0.0,0.0,0.0
46924577,37334,0,1.005859375,-0.03515625,0.015625,-0.01953125,0.0,0.0,0.0
46925828,37335,0,1.005859375,-0.03515625,0.009765625,-0.025390625,0.0,0.0,0.0
46927078,37336,0,1.001953125,-0.03125,0.013671875,-0.017578125,0.0,0.0,0.0
46928329,37337,0,1.005859375,-0.03515625,0.01953125,-0.015625,0.0,0.0,0.0
46929581,37338,0,1.0,-0.03515625,0.021484375,-0.013671875,0.0,0.0,0.0
46930833,37339,0,1.001953125,-0.033203125,0.013671875,-0.01953125,0.0,0.0,0.0
46932083,37340,0,1.0078125,-0.029296875,0.013671875,-0.015625,0.0,0.0,0.0
46933333,37341,0,1.00390625,-0.033203125,0.01953125,-0.013671875,0.0,0.0,0.0
46934584,37342,0,1.009765625,-0.02734375,0.017578125,-0.009765625,0.0,0.0,0.0
46935835,37343,0,1.0078125,-0.029296875,0.013671875,-0.015625,0.0,0.0,0.0
46937085,37344,0,1.0078125,-0.03125,0.01953125,-0.01171875,0.0,0.0,0.0
46938336,37345,0,0.99609375,-0.029296875,0.01953125,-0.009765625,0.0,0.0,0.0
46939587,37346,0,1.005859375,-0.02734375,0.01953125,-0.0078125,0.0,0.0,0.0
46940838,37347,0,0.998046875,-0.02734375,0.015625,-0.01171875,0.0,0.0,0.0
46942090,37348,0,1.005859375,-0.025390625,0.017578125,-0.0078125,0.0,0.0,0.0
46943341,37349,0,1.005859375,-0.025390625,0.017578125,-0.0078125,0.0,0.0,0.0
46944592,37350,0,1.009765625,-0.0234375,0.021484375,-0.001953125,0.0,0.0,0.0
46945844,37351,0,1.00390625,-0.029296875,0.021484375,-0.0078125,0.0,0.0,0.0
46947095,37352,0,1.001953125,-0.01953125,0.01953125,0.0,0.0,0.0,0.0
46948346,37353,0,1.005859375,-0.01953125,0.01953125,0.0,0.0,0.0,0.0
46949597,37354,0,1.00390625,-0.025390625,0.01953125,-0.005859375,0.0,0.0,0.0
46950849,37355,0,1.0078125,-0.0234375,0.01953125,-0.00390625,0.0,0.0,0.0
46952099,37356,0,1.005859375,-0.01953125,0.01953125,0.0,0.0,0.0,0.0
46953351,37357,0,1.0078125,-0.021484375,0.015625,-0.005859375,0.0,0.0,0.0
46954602,37358,0,1.0,-0.017578125,0.0078125,-0.009765625,0.0,0.0,0.0
46955854,37359,0,1.005859375,-0.0234375,0.017578125,-0.005859375,0.0,0.0,0.0
46957104,37360,0,1.001953125,-0.025390625,0.01953125,-0.005859375,0.0,0.0,0.0
46958354,37361,0,1.005859375,-0.013671875,0.01953125,0.005859375,0.0,0.0,0.0
46959605,37362,0,1.0078125,-0.021484375,0.021484375,0.0,0.0,0.0,0.0
46960855,37363,0,1.0,-0.01953125,0.015625,-0.00390625,0.0,0.0,0.0
46962107,37364,0,1.009765625,-0.01953125,0.009765625,-0.009765625,0.0,0.0,0.0
46963358,37365,0,1.0,-0.01953125,0.0234375,0.00390625,0.0,0.0,0.0
46964609,37366,0,1.0078125,-0.029296875,0.015625,-0.013671875,0.0,0.0,0.0
46965859,37367,0,1.001953125,-0.013671875,0.021484375,0.0078125,0.0,0.0,0.0
46967111,37368,0,0.99609375,-0.0234375,0.01953125,-0.00390625,0.0,0.0,0.0
46968362,37369,0,1.001953125,-0.021484375,0.01953125,-0.001953125,0.0,0.0,0.0
46969613,37370,0,0.998046875,-0.02734375,0.013671875,-0.013671875,0.0,0.0,0.0
46970865,37371,0,1.0,-0.02734375,0.017578125,-0.009765625,0.0,0.0,0.0
46972115,37372,0,1.005859375,-0.0234375,0.01171875,-0.01171875,0.0,0.0,0.0
46973365,37373,0,1.005859375,-0.02734375,0.015625,-0.01171875,0.0,0.0,0.0
46974617,37374,0,1.001953125,-0.02734375,0.017578125,-0.009765625,0.0,0.0,0.0
46975867,37375,0,1.0078125,-0.0234375,0.017578125,-0.005859375,0.0,0.0,0.0
46977118,37376,0,1.0078125,-0.025390625,0.009765625,-0.015625,0.0,0.0,0.0
46978369,37377,0,1.00390625,-0.02734375,0.017578125,-0.009765625,0.0,0.0,0.0
46979620,37378,0,1.005859375,-0.03125,0.01953125,-0.01171875,0.0,0.0,0.0
46980871,37379,0,0.998046875,-0.02734375,0.01171875,-0.015625,0.0,0.0,0.0
46982123,37380,0,1.001953125,-0.03125,0.015625,-0.015625,0.0,0.0,0.0
46983374,37381,0,1.001953125,-0.03125,0.009765625,-0.021484375,0.0,0.0,0.0
46984624,37382,0,1.009765625,-0.03125,0.009765625,-0.021484375,0.0,0.0,0.0
46985875,37383,0,0.99609375,-0.03125,0.017578125,-0.013671875,0.0,0.0,0.0
46987125,37384,0,1.005859375,-0.025390625,0.015625,-0.009765625,0.0,0.0,0.0
46988375,37385,0,1.001953125,-0.03515625,0.013671875,-0.021484375,0.0,0.0,0.0
46989626,37386,0,0.99609375,-0.03515625,0.017578125,-0.017578125,0.0,0.0,0.0
46990877,37387,0,0.998046875,-0.029296875,0.013671875,-0.015625,0.0,0.0,0.0
46992129,37388,0,1.005859375,-0.0390625,0.0078125,-0.03125,0.0,0.0,0.0
46993380,37389,0,1.0,-0.02734375,0.015625,-0.01171875,0.0,0.0,0.0
46994630,37390,0,1.001953125,-0.029296875,0.009765625,-0.01953125,0.0,0.0,0.0
46995881,37391,0,1.001953125,-0.03125,0.015625,-0.015625,0.0,0.0,0.0
46997133,37392,0,1.00390625,-0.033203125,0.01953125,-0.013671875,0.0,0.0,0.0
46998384,37393,0,1.0,-0.03125,0.01171875,-0.01953125,0.0,0.0,0.0
46999634,37394,0,1.0078125,-0.033203125,0.015625,-0.017578125,0.0,0.0,0.0
47000886,37395,0,1.00390625,-0.033203125,0.017578125,-0.015625,0.0,0.0,0.0
47002136,37396,0,1.0078125,-0.033203125,0.01171875,-0.021484375,0.0,0.0,0.0
47003386,37397,0,1.001953125,-0.029296875,0.013671875,-0.015625,0.0,0.0,0.0
47004638,37398,0,1.01171875,-0.025390625,0.021484375,-0.00390625,0.0,0.0,0.0
47005888,37399,0,1.005859375,-0.025390625,0.017578125,-0.0078125,0.0,0.0,0.0
47007139,37400,0,1.00390625,-0.0234375,0.01171875,-0.01171875,0.0,0.0,0.0
47008391,37401,0,0.99609375,-0.025390625,0.01953125,-0.005859375,0.0,0.0,0.0
47009641,37402,0,1.00390625,-0.0234375,0.017578125,-0.005859375,0.0,0.0,0.0
47010892,37403,0,0.998046875,-0.025390625,0.013671875,-0.01171875,0.0,0.0,0.0
47012142,37404,0,1.009765625,-0.021484375,0.015625,-0.005859375,0.0,0.0,0.0
47013393,37405,0,1.00390625,-0.0234375,0.017578125,-0.005859375,0.0,0.0,0.0
47014645,37406,0,1.0078125,-0.025390625,0.013671875,-0.01171875,0.0,0.0,0.0
47015895,37407,0,1.001953125,-0.01953125,0.015625,-0.00390625,0.0,0.0,0.0
47017147,37408,0,1.001953125,-0.0234375,0.013671875,-0.009765625,0.0,0.0,0.0
47018397,37409,0,1.0,-0.021484375,0.017578125,-0.00390625,0.0,0.0,0.0
47019649,37410,0,0.998046875,-0.01953125,0.013671875,-0.005859375,0.0,0.0,0.0
47020899,37411,0,1.013671875,-0.0234375,0.0234375,0.0,0.0,0.0,0.0
47022149,37412,0,1.01171875,-0.0234375,0.0234375,0.0,0.0,0.0,0.0
47023399,37413,0,1.005859375,-0.017578125,0.01953125,0.001953125,0.0,0.0,0.0
47024650,37414,0,1.001953125,-0.01953125,0.015625,-0.00390625,0.0,0.0,0.0
47025902,37415,0,1.001953125,-0.01953125,0.015625,-0.00390625,0.0,0.0,0.0
47027153,37416,0,1.0,-0.025390625,0.015625,-0.009765625,0.0,0.0,0.0
47028404,37417,0,0.998046875,-0.025390625,0.01953125,-0.005859375,0.0,0.0,0.0
47029654,37418,0,1.005859375,-0.021484375,0.013671875,-0.0078125,0.0,0.0,0.0
47030904,37419,0,1.001953125,-0.0234375,0.013671875,-0.009765625,0.0,0.0,0.0
47032155,37420,0,1.001953125,-0.021484375,0.015625,-0.005859375,0.0,0.0,0.0
47033407,37421,0,1.001953125,-0.0234375,0.01953125,-0.00390625,0.0,0.0,0.0
47034657,37422,0,1.005859375,-0.0234375,0.01953125,-0.00390625,0.0,0.0,0.0
47035909,37423,0,1.0078125,-0.0234375,0.009765625,-0.013671875,0.0,0.0,0.0
47037159,37424,0,1.009765625,-0.021484375,0.01953125,-0.001953125,0.0,0.0,0.0
47038409,37425,0,1.009765625,-0.01953125,0.021484375,0.001953125,0.0,0.0,0.0
47039661,37426,0,1.00390625,-0.029296875,0.015625,-0.013671875,0.0,0.0,0.0
47040911,37427,0,1.0,-0.0234375,0.015625,-0.0078125,0.0,0.0,0.0
47042161,37428,0,1.0078125,-0.029296875,0.01171875,-0.017578125,0.0,0.0,0.0
47043411,37429,0,1.0078125,-0.021484375,0.015625,-0.005859375,0.0,0.0,0.0
47044663,37430,0,1.009765625,-0.029296875,0.01171875,-0.017578125,0.0,0.0,0.0
47045913,37431,0,1.009765625,-0.029296875,0.013671875,-0.015625,0.0,0.0,0.0
47047164,37432,0,1.0078125,-0.0234375,0.017578125,-0.005859375,0.0,0.0,0.0
47048415,37433,0,1.015625,-0.029296875,0.017578125,-0.01171875,0.0,0.0,0.0
47049666,37434,0,1.005859375,-0.029296875,0.009765625,-0.01953125,0.0,0.0,0.0
47050916,37435,0,1.009765625,-0.03515625,0.015625,-0.01953125,0.0,0.0,0.0
47052167,37436,0,0.994140625,-0.03125,0.015625,-0.015625,0.0,0.0,0.0
47053417,37437,0,1.005859375,-0.029296875,0.015625,-0.013671875,0.0,0.0,0.0
47054668,37438,0,1.00390625,-0.029296875,0.017578125,-0.01171875,0.0,0.0,0.0
47055920,37439,0,1.0,-0.029296875,0.013671875,-0.015625,0.0,0.0,0.0
47057171,37440,0,1.00390625,-0.029296875,0.017578125,-0.01171875,0.0,0.0,0.0
47058421,37441,0,1.00390625,-0.02734375,0.01171875,-0.015625,0.0,0.0,0.0
47059672,37442,0,1.0,-0.03125,0.01953125,-0.01171875,0.0,0.0,0.0
47060924,37443,0,1.0,-0.0234375,0.009765625,-0.013671875,0.0,0.0,0.0
47062174,37444,0,1.001953125,-0.03125,0.017578125,-0.013671875,0.0,0.0,0.0
47063425,37445,0,1.00390625,-0.0234375,0.017578125,-0.005859375,0.0,0.0,0.0
47064677,37446,0,1.005859375,-0.029296875,0.013671875,-0.015625,0.0,0.0,0.0
47065927,37447,0,1.00390625,-0.02734375,0.01171875,-0.015625,0.0,0.0,0.0
47067177,37448,0,1.009765625,-0.02734375,0.017578125,-0.009765625,0.0,0.0,0.0
47068429,37449,0,1.00390625,-0.025390625,0.015625,-0.009765625,0.0,0.0,0.0
47069679,37450,0,1.001953125,-0.017578125,0.017578125,0.0,0.0,0.0,0.0
47070931,37451,0,0.994140625,-0.02734375,0.015625,-0.01171875,0.0,0.0,0.0
47072181,37452,0,1.005859375,-0.021484375,0.0078125,-0.013671875,0.0,0.0,0.0
47073431,37453,0,1.009765625,-0.0234375,0.0078125,-0.015625,0.0,0.0,0.0
47074683,37454,0,1.001953125,-0.02734375,0.01171875,-0.015625,0.0,0.0,0.0
47075933,37455,0,1.009765625,-0.01953125,0.017578125,-0.001953125,0.0,0.0,0.0
47077183,37456,0,1.0078125,-0.0234375,0.021484375,-0.001953125,0.0,0.0,0.0
47078434,37457,0,1.013671875,-0.0234375,0.021484375,-0.001953125,0.0,0.0,0.0
47079685,37458,0,0.99609375,-0.025390625,0.013671875,-0.01171875,0.0,0.0,0.0
47080936,37459,0,1.001953125,-0.0234375,0.013671875,-0.009765625,0.0,0.0,0.0
47082186,37460,0,1.001953125,-0.02734375,0.017578125,-0.009765625,0.0,0.0,0.0
47083437,37461,0,1.0078125,-0.0234375,0.01171875,-0.01171875,0.0,0.0,0.0
47084687,37462,0,1.0078125,-0.025390625,0.015625,-0.009765625,0.0,0.0,0.0
47085937,37463,0,1.001953125,-0.029296875,0.015625,-0.013671875,0.0,0.0,0.0
47087188,37464,0,1.005859375,-0.0234375,0.017578125,-0.005859375,0.0,0.0,0.0
47088440,37465,0,1.005859375,-0.025390625,0.021484375,-0.00390625,0.0,0.0,0.0
47089690,37466,0,1.00390625,-0.025390625,0.015625,-0.009765625,0.0,0.0,0.0
47090942,37467,0,1.001953125,-0.0234375,0.0234375,0.0,0.0,0.0,0.0
47092193,37468,0,1.005859375,-0.025390625,0.021484375,-0.00390625,0.0,0.0,0.0
47093445,37469,0,1.00390625,-0.025390625,0.021484375,-0.00390625,0.0,0.0,0.0
47094695,37470,0,1.00390625,-0.025390625,0.017578125,-0.0078125,0.0,0.0,0.0
47095947,37471,0,1.001953125,-0.01953125,0.013671875,-0.005859375,0.0,0.0,0.0
47097198,37472,0,1.0078125,-0.021484375,0.01953125,-0.001953125,0.0,0.0,0.0
47098450,37473,0,1.0,-0.02734375,0.01953125,-0.0078125,0.0,0.0,0.0
47099700,37474,0,1.00390625,-0.021484375,0.01171875,-0.009765625,0.0,0.0,0.0
47100952,37475,0,1.005859375,-0.01953125,0.015625,-0.00390625,0.0,0.0,0.0
47102203,37476,0,0.994140625,-0.02734375,0.015625,-0.01171875,0.0,0.0,0.0
47103454,37477,0,1.001953125,-0.033203125,0.015625,-0.017578125,0.0,0.0,0.0
47104705,37478,0,1.005859375,-0.029296875,0.015625,-0.013671875,0.0,0.0,0.0
47105957,37479,0,1.001953125,-0.03125,0.01171875,-0.01953125,0.0,0.0,0.0
47107207,37480,0,1.005859375,-0.02734375,0.015625,-0.01171875,0.0,0.0,0.0
47108459,37481,0,1.00390625,-0.029296875,0.013671875,-0.015625,0.0,0.0,0.0
47109709,37482,0,1.00390625,-0.03125,0.005859375,-0.025390625,0.0,0.0,0.0
47110959,37483,0,1.00390625,-0.029296875,0.009765625,-0.01953125,0.0,0.0,0.0
47112209,37484,0,1.00390625,-0.03125,0.013671875,-0.017578125,0.0,0.0,0.0
47113459,37485,0,1.005859375,-0.02734375,0.01953125,-0.0078125,0.0,0.0,0.0
47114711,37486,0,1.009765625,-0.029296875,0.01953125,-0.009765625,0.0,0.0,0.0
47115961,37487,0,1.005859375,-0.03125,0.013671875,-0.017578125,0.0,0.0,0.0
47117213,37488,0,1.001953125,-0.02734375,0.013671875,-0.013671875,0.0,0.0,0.0
47118464,37489,0,1.005859375,-0.029296875,0.01953125,-0.009765625,0.0,0.0,0.0
47119715,37490,0,1.001953125,-0.02734375,0.015625,-0.01171875,0.0,0.0,0.0
47120966,37491,0,1.009765625,-0.02734375,0.01171875,-0.015625,0.0,0.0,0.0
47122216,37492,0,1.001953125,-0.033203125,0.01171875,-0.021484375,0.0,0.0,0.0
47123467,37493,0,1.00390625,-0.029296875,0.017578125,-0.01171875,0.0,0.0,0.0
47124718,37494,0,0.994140625,-0.033203125,0.017578125,-0.015625,0.0,0.0,0.0
47125968,37495,0,0.99609375,-0.029296875,0.015625,-0.013671875,0.0,0.0,0.0
47127219,37496,0,1.0,-0.03125,0.017578125,-0.013671875,0.0,0.0,0.0
47128470,37497,0,1.0078125,-0.025390625,0.0234375,-0.001953125,0.0,0.0,0.0
47129721,37498,0,0.998046875,-0.0234375,0.0234375,0.0,0.0,0.0,0.0
47130971,37499,0,0.994140625,-0.02734375,0.013671875,-0.013671875,0.0,0.0,0.0
47132223,37500,0,1.0078125,-0.025390625,0.015625,-0.009765625,0.0,0.0,0.0
47133473,37501,0,0.998046875,-0.02734375,0.015625,-0.01171875,0.0,0.0,0.0
47134723,37502,0,1.005859375,-0.025390625,0.013671875,-0.01171875,0.0,0.0,0.0
47135975,37503,0,1.00390625,-0.02734375,0.015625,-0.01171875,0.0,0.0,0.0
47137226,37504,0,1.0078125,-0.025390625,0.015625,-0.009765625,0.0,0.0,0.0
47138476,37505,0,1.001953125,-0.029296875,0.009765625,-0.01953125,0.0,0.0,0.0
47139728,37506,0,1.00390625,-0.029296875,0.009765625,-0.01953125,0.0,0.0,0.0
47140979,37507,0,0.998046875,-0.0234375,0.009765625,-0.013671875,0.0,0.0,0.0
47142229,37508,0,1.005859375,-0.0234375,0.013671875,-0.009765625,0.0,0.0,0.0
47143481,37509,0,1.005859375,-0.0234375,0.013671875,-0.009765625,0.0,0.0,0.0
47144731,37510,0,1.0,-0.0234375,0.01953125,-0.00390625,0.0,0.0,0.0
47145981,37511,0,1.00390625,-0.0234375,0.017578125,-0.005859375,0.0,0.0,0.0
47147232,37512,0,1.005859375,-0.021484375,0.009765625,-0.01171875,0.0,0.0,0.0
47148483,37513,0,1.001953125,-0.01953125,0.01953125,0.0,0.0,0.0,0.0
47149734,37514,0,1.001953125,-0.01953125,0.0234375,0.00390625,0.0,0.0,0.0
47150986,37515,0,1.009765625,-0.0234375,0.017578125,-0.005859375,0.0,0.0,0.0
47152236,37516,0,1.01171875,-0.021484375,0.01953125,-0.001953125,0.0,0.0,0.0
47153486,37517,0,1.00390625,-0.0234375,0.013671875,-0.009765625,0.0,0.0,0.0
47154737,37518,0,1.013671875,-0.02734375,0.015625,-0.01171875,0.0,0.0,0.0
47155987,37519,0,1.001953125,-0.017578125,0.015625,-0.001953125,0.0,0.0,0.0
47157238,37520,0,1.001953125,-0.021484375,0.021484375,0.0,0.0,0.0,0.0
47158489,37521,0,1.001953125,-0.0234375,0.013671875,-0.009765625,0.0,0.0,0.0
47159740,37522,0,1.01171875,-0.0234375,0.01953125,-0.00390625,0.0,0.0,0.0
47160991,37523,0,1.005859375,-0.01953125,0.015625,-0.00390625,0.0,0.0,0.0
47162241,37524,0,1.00390625,-0.025390625,0.017578125,-0.0078125,0.0,0.0,0.0
47163492,37525,0,1.009765625,-0.0234375,0.01171875,-0.01171875,0.0,0.0,0.0
47164744,37526,0,1.0078125,-0.021484375,0.015625,-0.005859375,0.0,0.0,0.0
47165994,37527,0,1.005859375,-0.01953125,0.015625,-0.00390625,0.0,0.0,0.0
47167245,37528,0,1.0,-0.02734375,0.017578125,-0.009765625,0.0,0.0,0.0
47168496,37529,0,1.005859375,-0.0234375,0.01171875,-0.01171875,0.0,0.0,0.0
47169747,37530,0,0.998046875,-0.0234375,0.017578125,-0.005859375,0.0,0.0,0.0
47170998,37531,0,1.0078125,-0.029296875,0.015625,-0.013671875,0.0,0.0,0.0
47172249,37532,0,0.998046875,-0.03515625,0.015625,-0.01953125,0.0,0.0,0.0
47173499,37533,0,0.998046875,-0.02734375,0.015625,-0.01171875,0.0,0.0,0.0
47174751,37534,0,1.009765625,-0.021484375,0.009765625,-0.01171875,0.0,0.0,0.0
47176002,37535,0,1.0,-0.03125,0.0078125,-0.0234375,0.0,0.0,0.0
47177253,37536,0,1.001953125,-0.029296875,0.013671875,-0.015625,0.0,0.0,0.0
47178503,37537,0,1.00390625,-0.02734375,0.01171875,-0.015625,0.0,0.0,0.0
47179755,37538,0,1.0078125,-0.033203125,0.015625,-0.017578125,0.0,0.0,0.0
47181005,37539,0,1.005859375,-0.0234375,0.0078125,-0.015625,0.0,0.0,0.0
47182256,37540,0,1.001953125,-0.029296875,0.015625,-0.013671875,0.0,0.0,0.0
47183506,37541,0,1.00390625,-0.025390625,0.01171875,-0.013671875,0.0,0.0,0.0
47184757,37542,0,1.001953125,-0.037109375,0.015625,-0.021484375,0.0,0.0,0.0
47186008,37543,0,1.005859375,-0.02734375,0.01171875,-0.015625,0.0,0.0,0.0
47187258,37544,0,1.001953125,-0.033203125,0.013671875,-0.01953125,0.0,0.0,0.0
47188508,37545,0,1.00390625,-0.037109375,0.017578125,-0.01953125,0.0,0.0,0.0
47189759,37546,0,1.001953125,-0.03125,0.017578125,-0.013671875,0.0,0.0,0.0
47191009,37547,0,1.001953125,-0.033203125,0.013671875,-0.01953125,0.0,0.0,0.0
47192259,37548,0,1.00390625,-0.033203125,0.015625,-0.017578125,0.0,0.0,0.0
47193510,37549,0,1.0078125,-0.033203125,0.015625,-0.017578125,0.0,0.0,0.0
47194762,37550,0,1.0078125,-0.029296875,0.013671875,-0.015625,0.0,0.0,0.0
47196012,37551,0,1.005859375,-0.02734375,0.013671875,-0.013671875,0.0,0.0,0.0
47197271,37552,0,1.0,-0.029296875,0.013671875,-0.015625,0.0,0.0,0.0
47198521,37553,0,1.00390625,-0.029296875,0.0078125,-0.021484375,0.0,0.0,0.0
47199773,37554,0,1.005859375,-0.02734375,0.01953125,-0.0078125,0.0,0.0,0.0
47201023,37555,0,1.00390625,-0.029296875,0.017578125,-0.01171875,0.0,0.0,0.0
47202274,37556,0,1.0078125,-0.03125,0.017578125,-0.013671875,0.0,0.0,0.0
47203525,37557,0,1.0078125,-0.03125,0.009765625,-0.021484375,0.0,0.0,0.0
47204776,37558,0,1.01171875,-0.025390625,0.015625,-0.009765625,0.0,0.0,0.0
47206026,37559,0,1.00390625,-0.02734375,0.0078125,-0.01953125,0.0,0.0,0.0
47207276,37560,0,1.0078125,-0.033203125,0.00390625,-0.029296875,0.0,0.0,0.0
47208527,37561,0,0.998046875,-0.02734375,0.021484375,-0.005859375,0.0,0.0,0.0
47209778,37562,0,1.001953125,-0.021484375,0.01953125,-0.001953125,0.0,0.0,0.0
47211029,37563,0,0.998046875,-0.02734375,0.01953125,-0.0078125,0.0,0.0,0.0
47212280,37564,0,1.0078125,-0.025390625,0.015625,-0.009765625,0.0,0.0,0.0
47213531,37565,0,1.005859375,-0.0234375,0.013671875,-0.009765625,0.0,0.0,0.0
47214783,37566,0,1.0078125,-0.025390625,0.015625,-0.009765625,0.0,0.0,0.0
47216034,37567,0,1.005859375,-0.025390625,0.01953125,-0.005859375,0.0,0.0,0.0
47217286,37568,0,1.00390625,-0.02734375,0.015625,-0.01171875,0.0,0.0,0.0
47218537,37569,0,1.005859375,-0.0234375,0.017578125,-0.005859375,0.0,0.0,0.0
47219789,37570,0,1.00390625,-0.0234375,0.017578125,-0.005859375,0.0,0.0,0.0
47221039,37571,0,1.001953125,-0.0234375,0.017578125,-0.005859375,0.0,0.0,0.0
47222289,37572,0,1.00390625,-0.025390625,0.017578125,-0.0078125,0.0,0.0,0.0
47223541,37573,0,1.00390625,-0.01953125,0.01953125,0.0,0.0,0.0,0.0
47224792,37574,0,1.00390625,-0.021484375,0.013671875,-0.0078125,0.0,0.0,0.0
47226044,37575,0,1.005859375,-0.021484375,0.01171875,-0.009765625,0.0,0.0,0.0
47227294,37576,0,1.005859375,-0.0234375,0.017578125,-0.005859375,0.0,0.0,0.0
47228544,37577,0,1.005859375,-0.025390625,0.01953125,-0.005859375,0.0,0.0,0.0
47229795,37578,0,1.00390625,-0.0234375,0.015625,-0.0078125,0.0,0.0,0.0
47231045,37579,0,1.00390625,-0.0234375,0.01953125,-0.00390625,0.0,0.0,0.0
47232295,37580,0,1.005859375,-0.0234375,0.01953125,-0.00390625,0.0,0.0,0.0
47233546,37581,0,1.01171875,-0.02734375,0.017578125,-0.009765625,0.0,0.0,0.0
47234797,37582,0,1.005859375,-0.021484375,0.01953125,-0.001953125,0.0,0.0,0.0
47236048,37583,0,1.001953125,-0.025390625,0.01953125,-0.005859375,0.0,0.0,0.0
47237299,37584,0,1.0,-0.025390625,0.021484375,-0.00390625,0.0,0.0,0.0
47238550,37585,0,1.0078125,-0.029296875,0.01953125,-0.009765625,0.0,0.0,0.0
47239800,37586,0,1.0,-0.029296875,0.009765625,-0.01953125,0.0,0.0,0.0
47241052,37587,0,1.00390625,-0.0234375,0.017578125,-0.005859375,0.0,0.0,0.0
47242303,37588,0,1.005859375,-0.025390625,0.017578125,-0.0078125,0.0,0.0,0.0
47243554,37589,0,1.001953125,-0.025390625,0.013671875,-0.01171875,0.0,0.0,0.0
47244805,37590,0,1.0078125,-0.029296875,0.01171875,-0.017578125,0.0,0.0,0.0
47246057,37591,0,1.005859375,-0.029296875,0.01171875,-0.017578125,0.0,0.0,0.0
47247308,37592,0,1.0,-0.029296875,0.013671875,-0.015625,0.0,0.0,0.0
47248560,37593,0,1.001953125,-0.02734375,0.013671875,-0.013671875,0.0,0.0,0.0
47249811,37594,0,1.00390625,-0.02734375,0.017578125,-0.009765625,0.0,0.0,0.0
47251063,37595,0,1.00390625,-0.025390625,0.013671875,-0.01171875,0.0,0.0,0.0
47252314,37596,0,0.998046875,-0.029296875,0.015625,-0.013671875,0.0,0.0,0.0
47253565,37597,0,1.001953125,-0.025390625,0.013671875,-0.01171875,0.0,0.0,0.0
47254816,37598,0,1.005859375,-0.029296875,0.01171875,-0.017578125,0.0,0.0,0.0
47256066,37599,0,1.009765625,-0.0234375,0.017578125,-0.005859375,0.0,0.0,0.0
47257318,37600,0,1.009765625,-0.0234375,0.015625,-0.0078125,0.0,0.0,0.0
47258569,37601,0,1.00390625,-0.021484375,0.0078125,-0.013671875,0.0,0.0,0.0
47259819,37602,0,1.015625,-0.033203125,0.015625,-0.017578125,0.0,0.0,0.0
47261070,37603,0,1.009765625,-0.025390625,0.013671875,-0.01171875,0.0,0.0,0.0
47262321,37604,0,1.001953125,-0.029296875,0.01171875,-0.017578125,0.0,0.0,0.0
47263572,37605,0,1.013671875,-0.025390625,0.005859375,-0.01953125,0.0,0.0,0.0
47264823,37606,0,1.00390625,-0.02734375,0.013671875,-0.013671875,0.0,0.0,0.0
47266074,37607,0,1.00390625,-0.03125,0.009765625,-0.021484375,0.0,0.0,0.0
47267325,37608,0,1.0078125,-0.0234375,0.01171875,-0.01171875,0.0,0.0,0.0
47268575,37609,0,1.001953125,-0.02734375,0.017578125,-0.009765625,0.0,0.0,0.0
47269825,37610,0,1.001953125,-0.029296875,0.013671875,-0.015625,0.0,0.0,0.0
47271076,37611,0,1.005859375,-0.02734375,0.017578125,-0.009765625,0.0,0.0,0.0
47272326,37612,0,1.001953125,-0.025390625,0.01171875,-0.013671875,0.0,0.0,0.0
47273577,37613,0,1.001953125,-0.0234375,0.015625,-0.0078125,0.0,0.0,0.0
47274828,37614,0,1.00390625,-0.0234375,0.015625,-0.0078125,0.0,0.0,0.0
47276078,37615,0,1.00390625,-0.0234375,0.021484375,-0.001953125,0.0,0.0,0.0
47277329,37616,0,1.005859375,-0.021484375,0.015625,-0.005859375,0.0,0.0,0.0
47278581,37617,0,1.0078125,-0.0234375,0.021484375,-0.001953125,0.0,0.0,0.0
47279833,37618,0,1.005859375,-0.01953125,0.01953125,0.0,0.0,0.0,0.0
47281083,37619,0,1.0078125,-0.0234375,0.017578125,-0.005859375,0.0,0.0,0.0
47282333,37620,0,1.001953125,-0.0234375,0.0078125,-0.015625,0.0,0.0,0.0
47283584,37621,0,1.00390625,-0.029296875,0.01953125,-0.009765625,0.0,0.0,0.0
47284835,37622,0,1.0,-0.02734375,0.017578125,-0.009765625,0.0,0.0,0.0
47286085,37623,0,1.005859375,-0.03125,0.017578125,-0.013671875,0.0,0.0,0.0
47287336,37624,0,1.005859375,-0.02734375,0.015625,-0.01171875,0.0,0.0,0.0
47288587,37625,0,1.00390625,-0.0234375,0.017578125,-0.005859375,0.0,0.0,0.0
47289838,37626,0,1.0078125,-0.02734375,0.017578125,-0.009765625,0.0,0.0,0.0
47291090,37627,0,1.0,-0.021484375,0.017578125,-0.00390625,0.0,0.0,0.0
47292341,37628,0,0.994140625,-0.025390625,0.021484375,-0.00390625,0.0,0.0,0.0
47293592,37629,0,1.005859375,-0.025390625,0.01953125,-0.005859375,0.0,0.0,0.0
47294844,37630,0,1.001953125,-0.02734375,0.021484375,-0.005859375,0.0,0.0,0.0
47296095,37631,0,1.00390625,-0.029296875,0.015625,-0.013671875,0.0,0.0,0.0
47297346,37632,0,0.998046875,-0.025390625,0.013671875,-0.01171875,0.0,0.0,0.0
47298597,37633,0,1.005859375,-0.02734375,0.013671875,-0.013671875,0.0,0.0,0.0
47299849,37634,0,1.00390625,-0.029296875,0.013671875,-0.015625,0.0,0.0,0.0
47301099,37635,0,1.0,-0.0234375,0.01953125,-0.00390625,0.0,0.0,0.0
47302351,37636,0,1.0078125,-0.025390625,0.01953125,-0.005859375,0.0,0.0,0.0
47303602,37637,0,1.001953125,-0.02734375,0.01171875,-0.015625,0.0,0.0,0.0
47304854,37638,0,1.00390625,-0.029296875,0.015625,-0.013671875,0.0,0.0,0.0
47306104,37639,0,1.00390625,-0.02734375,0.015625,-0.01171875,0.0,0.0,0.0
47307354,37640,0,1.005859375,-0.02734375,0.01953125,-0.0078125,0.0,0.0,0.0
47308605,37641,0,1.0078125,-0.0234375,0.013671875,-0.009765625,0.0,0.0,0.0
47309855,37642,0,1.0,-0.0234375,0.015625,-0.0078125,0.0,0.0,0.0
47311107,37643,0,1.0,-0.029296875,0.013671875,-0.015625,0.0,0.0,0.0
47312358,37644,0,1.01953125,-0.025390625,0.01171875,-0.013671875,0.0,0.0,0.0
47313609,37645,0,0.998046875,-0.02734375,0.017578125,-0.009765625,0.0,0.0,0.0
47314859,37646,0,1.0,-0.025390625,0.01171875,-0.013671875,0.0,0.0,0.0
47316111,37647,0,0.998046875,-0.03125,0.01171875,-0.01953125,0.0,0.0,0.0
47317362,37648,0,0.994140625,-0.025390625,0.015625,-0.009765625,0.0,0.0,0.0
47318613,37649,0,1.00390625,-0.029296875,0.015625,-0.013671875,0.0,0.0,0.0
47319865,37650,0,1.001953125,-0.029296875,0.01171875,-0.017578125,0.0,0.0,0.0
47321115,37651,0,1.00390625,-0.029296875,0.009765625,-0.01953125,0.0,0.0,0.0
47322365,37652,0,1.001953125,-0.029296875,0.005859375,-0.0234375,0.0,0.0,0.0
47323617,37653,0,1.005859375,-0.02734375,0.013671875,-0.013671875,0.0,0.0,0.0
47324867,37654,0,1.005859375,-0.021484375,0.009765625,-0.01171875,0.0,0.0,0.0
47326118,37655,0,1.0078125,-0.0234375,0.01953125,-0.00390625,0.0,0.0,0.0
47327369,37656,0,1.0,-0.02734375,0.015625,-0.01171875,0.0,0.0,0.0
47328620,37657,0,0.998046875,-0.02734375,0.013671875,-0.013671875,0.0,0.0,0.0
47329871,37658,0,1.00390625,-0.029296875,0.017578125,-0.01171875,0.0,0.0,0.0
47331123,37659,0,1.0078125,-0.025390625,0.013671875,-0.01171875,0.0,0.0,0.0
47332374,37660,0,1.00390625,-0.03125,0.01953125,-0.01171875,0.0,0.0,0.0
47333624,37661,0,1.009765625,-0.02734375,0.015625,-0.01171875,0.0,0.0,0.0
47334875,37662,0,1.00390625,-0.01953125,0.01953125,0.0,0.0,0.0,0.0
47336125,37663,0,1.013671875,-0.025390625,0.017578125,-0.0078125,0.0,0.0,0.0
47337375,37664,0,1.005859375,-0.025390625,0.009765625,-0.015625,0.0,0.0,0.0
47338626,37665,0,1.001953125,-0.02734375,0.017578125,-0.009765625,0.0,0.0,0.0
47339877,37666,0,1.001953125,-0.025390625,0.0078125,-0.017578125,0.0,0.0,0.0
47341129,37667,0,0.998046875,-0.033203125,0.005859375,-0.02734375,0.0,0.0,0.0
47342380,37668,0,1.0078125,-0.0234375,0.015625,-0.0078125,0.0,0.0,0.0
47343630,37669,0,1.015625,-0.0234375,0.0078125,-0.015625,0.0,0.0,0.0
47344881,37670,0,1.00390625,-0.021484375,0.017578125,-0.00390625,0.0,0.0,0.0
47346133,37671,0,1.005859375,-0.02734375,0.015625,-0.01171875,0.0,0.0,0.0
47347384,37672,0,1.0078125,-0.021484375,0.009765625,-0.01171875,0.0,0.0,0.0
47348634,37673,0,1.005859375,-0.0234375,0.017578125,-0.005859375,0.0,0.0,0.0
47349886,37674,0,1.0,-0.029296875,0.01953125,-0.009765625,0.0,0.0,0.0
47351136,37675,0,1.005859375,-0.025390625,0.013671875,-0.01171875,0.0,0.0,0.0
47352386,37676,0,1.00390625,-0.021484375,0.015625,-0.005859375,0.0,0.0,0.0
47353638,37677,0,1.0078125,-0.0234375,0.009765625,-0.013671875,0.0,0.0,0.0
47354888,37678,0,1.001953125,-0.021484375,0.0078125,-0.013671875,0.0,0.0,0.0
47356139,37679,0,0.998046875,-0.02734375,0.015625,-0.01171875,0.0,0.0,0.0
47357391,37680,0,1.005859375,-0.025390625,0.017578125,-0.0078125,0.0,0.0,0.0
47358641,37681,0,1.0,-0.0234375,0.013671875,-0.009765625,0.0,0.0,0.0
47359892,37682,0,1.0,-0.025390625,0.015625,-0.009765625,0.0,0.0,0.0
47361142,37683,0,1.001953125,-0.02734375,0.021484375,-0.005859375,0.0,0.0,0.0
47362393,37684,0,1.0,-0.02734375,0.021484375,-0.005859375,0.0,0.0,0.0
47363645,37685,0,1.009765625,-0.0234375,0.009765625,-0.013671875,0.0,0.0,0.0
47364895,37686,0,1.01171875,-0.025390625,0.017578125,-0.0078125,0.0,0.0,0.0
47366147,37687,0,1.0078125,-0.02734375,0.013671875,-0.013671875,0.0,0.0,0.0
47367397,37688,0,0.998046875,-0.01953125,0.013671875,-0.005859375,0.0,0.0,0.0
47368649,37689,0,0.998046875,-0.021484375,0.01953125,-0.001953125,0.0,0.0,0.0
47369899,37690,0,0.99609375,-0.03125,0.01171875,-0.01953125,0.0,0.0,0.0
47371149,37691,0,0.998046875,-0.02734375,0.013671875,-0.013671875,0.0,0.0,0.0
47372399,37692,0,0.998046875,-0.033203125,0.017578125,-0.015625,0.0,0.0,0.0
47373650,37693,0,1.001953125,-0.02734375,0.01953125,-0.0078125,0.0,0.0,0.0
47374902,37694,0,1.005859375,-0.029296875,0.013671875,-0.015625,0.0,0.0,0.0
47376153,37695,0,1.005859375,-0.029296875,0.013671875,-0.015625,0.0,0.0,0.0
47377404,37696,0,1.001953125,-0.025390625,0.015625,-0.009765625,0.0,0.0,0.0
47378654,37697,0,1.0,-0.02734375,0.009765625,-0.017578125,0.0,0.0,0.0
47379904,37698,0,1.009765625,-0.033203125,0.013671875,-0.01953125,0.0,0.0,0.0
47381155,37699,0,1.001953125,-0.02734375,0.013671875,-0.013671875,0.0,0.0,0.0
47382407,37700,0,1.005859375,-0.029296875,0.01171875,-0.017578125,0.0,0.0,0.0
47383657,37701,0,1.01171875,-0.029296875,0.01171875,-0.017578125,0.0,0.0,0.0
47384909,37702,0,0.998046875,-0.029296875,0.013671875,-0.015625,0.0,0.0,0.0
47386159,37703,0,0.99609375,-0.029296875,0.015625,-0.013671875,0.0,0.0,0.0
47387409,37704,0,1.00390625,-0.033203125,0.01171875,-0.021484375,0.0,0.0,0.0
47388661,37705,0,0.998046875,-0.033203125,0.015625,-0.017578125,0.0,0.0,0.0
47389911,37706,0,1.0078125,-0.02734375,0.015625,-0.01171875,0.0,0.0,0.0
47391161,37707,0,0.99609375,-0.03125,0.013671875,-0.017578125,0.0,0.0,0.0
47392411,37708,0,1.001953125,-0.025390625,0.009765625,-0.015625,0.0,0.0,0.0
47393663,37709,0,1.00390625,-0.01953125,0.0078125,-0.01171875,0.0,0.0,0.0
47394913,37710,0,1.00390625,-0.0234375,0.01171875,-0.01171875,0.0,0.0,0.0
47396164,37711,0,0.99609375,-0.025390625,0.025390625,0.0,0.0,0.0,0.0
47397415,37712,0,1.001953125,-0.025390625,0.021484375,-0.00390625,0.0,0.0,0.0
47398666,37713,0,0.998046875,-0.025390625,0.015625,-0.009765625,0.0,0.0,0.0
47399916,37714,0,1.001953125,-0.025390625,0.013671875,-0.01171875,0.0,0.0,0.0
47401167,37715,0,1.001953125,-0.0234375,0.013671875,-0.009765625,0.0,0.0,0.0
47402417,37716,0,1.009765625,-0.025390625,0.01171875,-0.013671875,0.0,0.0,0.0
47403668,37717,0,1.005859375,-0.02734375,0.01171875,-0.015625,0.0,0.0,0.0
47404920,37718,0,1.005859375,-0.02734375,0.01953125,-0.0078125,0.0,0.0,0.0
47406171,37719,0,1.0078125,-0.02734375,0.015625,-0.01171875,0.0,0.0,0.0
47407421,37720,0,1.0078125,-0.02734375,0.01953125,-0.0078125,0.0,0.0,0.0
47408672,37721,0,1.0,-0.029296875,0.013671875,-0.015625,0.0,0.0,0.0
47409924,37722,0,1.0,-0.025390625,0.005859375,-0.01953125,0.0,0.0,0.0
47411174,37723,0,1.001953125,-0.025390625,0.01171875,-0.013671875,0.0,0.0,0.0
47412425,37724,0,1.005859375,-0.0234375,0.015625,-0.0078125,0.0,0.0,0.0
47413677,37725,0,1.0078125,-0.025390625,0.01953125,-0.005859375,0.0,0.0,0.0
47414927,37726,0,1.005859375,-0.02734375,0.015625,-0.01171875,0.0,0.0,0.0
47416177,37727,0,0.998046875,-0.01953125,0.009765625,-0.009765625,0.0,0.0,0.0
47417429,37728,0,1.001953125,-0.02734375,0.009765625,-0.017578125,0.0,0.0,0.0
47418679,37729,0,1.0078125,-0.0234375,0.017578125,-0.005859375,0.0,0.0,0.0
47419931,37730,0,0.99609375,-0.0234375,0.017578125,-0.005859375,0.0,0.0,0.0
47421181,37731,0,1.001953125,-0.021484375,0.013671875,-0.0078125,0.0,0.0,0.0
47422431,37732,0,1.0,-0.02734375,0.013671875,-0.013671875,0.0,0.0,0.0
47423683,37733,0,1.009765625,-0.025390625,0.009765625,-0.015625,0.0,0.0,0.0
47424933,37734,0,1.005859375,-0.025390625,0.01171875,-0.013671875,0.0,0.0,0.0
47426183,37735,0,1.0,-0.0234375,0.015625,-0.0078125,0.0,0.0,0.0
47427434,37736,0,1.001953125,-0.02734375,0.015625,-0.01171875,0.0,0.0,0.0
47428685,37737,0,1.0,-0.0234375,0.017578125,-0.005859375,0.0,0.0,0.0
47429936,37738,0,1.005859375,-0.025390625,0.015625,-0.009765625,0.0,0.0,0.0
47431186,37739,0,1.0,-0.02734375,0.01171875,-0.015625,0.0,0.0,0.0
47432437,37740,0,1.00390625,-0.0234375,0.01953125,-0.00390625,0.0,0.0,0.0
47433687,37741,0,1.005859375,-0.017578125,0.015625,-0.001953125,0.0,0.0,0.0
47434937,37742,0,1.005859375,-0.02734375,0.015625,-0.01171875,0.0,0.0,0.0
47436188,37743,0,1.001953125,-0.029296875,0.01953125,-0.009765625,0.0,0.0,0.0
47437440,37744,0,1.0078125,-0.029296875,0.01953125,-0.009765625,0.0,0.0,0.0
47438690,37745,0,1.001953125,-0.02734375,0.01953125,-0.0078125,0.0,0.0,0.0
47439942,37746,0,1.00390625,-0.021484375,0.013671875,-0.0078125,0.0,0.0,0.0
47441193,37747,0,1.005859375,-0.025390625,0.013671875,-0.01171875,0.0,0.0,0.0
47442445,37748,0,1.00390625,-0.03125,0.0078125,-0.0234375,0.0,0.0,0.0
47443695,37749,0,1.001953125,-0.02734375,0.0234375,-0.00390625,0.0,0.0,0.0
47444947,37750,0,1.0,-0.021484375,0.01953125,-0.001953125,0.0,0.0,0.0
47446198,37751,0,1.001953125,-0.0234375,0.015625,-0.0078125,0.0,0.0,0.0
47447450,37752,0,1.00390625,-0.01953125,0.015625,-0.00390625,0.0,0.0,0.0
47448700,37753,0,1.00390625,-0.025390625,-0.029296875,-0.0546875,0.0,0.0,0.0
47449952,37754,0,1.009765625,-0.029296875,0.009765625,-0.01953125,0.0,0.0,0.0
47451203,37755,0,1.0,-0.03125,0.0234375,-0.0078125,0.0,0.0,0.0
47452454,37756,0,1.001953125,-0.02734375,0.005859375,-0.021484375,0.0,0.0,0.0
47453705,37757,0,1.017578125,-0.03125,0.013671875,-0.017578125,0.0,0.0,0.0
47454957,37758,0,1.005859375,-0.029296875,0.013671875,-0.015625,0.0,0.0,0.0
47456207,37759,0,1.0,-0.025390625,0.01171875,-0.013671875,0.0,0.0,0.0
47457459,37760,0,0.998046875,-0.02734375,0.01171875,-0.015625,0.0,0.0,0.0
47458709,37761,0,1.00390625,-0.02734375,0.021484375,-0.005859375,0.0,0.0,0.0
47459959,37762,0,1.00390625,-0.03515625,0.009765625,-0.025390625,0.0,0.0,0.0
47461209,37763,0,1.005859375,-0.03125,0.015625,-0.015625,0.0,0.0,0.0
47462459,37764,0,1.0078125,-0.029296875,0.005859375,-0.0234375,0.0,0.0,0.0
47463711,37765,0,1.00390625,-0.03125,0.013671875,-0.017578125,0.0,0.0,0.0
47464961,37766,0,1.005859375,-0.025390625,0.017578125,-0.0078125,0.0,0.0,0.0
47466213,37767,0,1.0078125,-0.033203125,0.01953125,-0.013671875,0.0,0.0,0.0
47467464,37768,0,1.0078125,-0.025390625,0.01953125,-0.005859375,0.0,0.0,0.0
47468715,37769,0,1.00390625,-0.025390625,0.017578125,-0.0078125,0.0,0.0,0.0
47469966,37770,0,1.0,-0.03125,0.013671875,-0.017578125,0.0,0.0,0.0
47471216,37771,0,0.99609375,-0.0234375,0.01171875,-0.01171875,0.0,0.0,0.0
47472467,37772,0,0.99609375,-0.025390625,0.021484375,-0.00390625,0.0,0.0,0.0
47473718,37773,0,1.01171875,-0.03515625,0.005859375,-0.029296875,0.0,0.0,0.0
47474968,37774,0,1.00390625,-0.025390625,0.02734375,0.001953125,0.0,0.0,0.0
47476219,37775,0,1.001953125,-0.025390625,0.013671875,-0.01171875,0.0,0.0,0.0
47477470,37776,0,0.998046875,-0.02734375,0.013671875,-0.013671875,0.0,0.0,0.0
47478721,37777,0,1.00390625,-0.02734375,0.01171875,-0.015625,0.0,0.0,0.0
47479971,37778,0,1.001953125,-0.029296875,0.01953125,-0.009765625,0.0,0.0,0.0
47481223,37779,0,1.0,-0.025390625,0.017578125,-0.0078125,0.0,0.0,0.0
47482473,37780,0,1.00390625,-0.02734375,0.009765625,-0.017578125,0.0,0.0,0.0
47483723,37781,0,1.0,-0.02734375,0.013671875,-0.013671875,0.0,0.0,0.0
47484975,37782,0,1.0078125,-0.021484375,0.01953125,-0.001953125,0.0,0.0,0.0
47486226,37783,0,1.00390625,-0.03125,0.009765625,-0.021484375,0.0,0.0,0.0
47487476,37784,0,1.001953125,-0.025390625,0.01953125,-0.005859375,0.0,0.0,0.0
47488728,37785,0,1.00390625,-0.0234375,0.01171875,-0.01171875,0.0,0.0,0.0
47489979,37786,0,1.00390625,-0.0234375,0.01953125,-0.00390625,0.0,0.0,0.0
47491229,37787,0,1.00390625,-0.02734375,0.01953125,-0.0078125,0.0,0.0,0.0
47492481,37788,0,1.00390625,-0.025390625,0.015625,-0.009765625,0.0,0.0,0.0
47493731,37789,0,1.005859375,-0.01953125,0.015625,-0.00390625,0.0,0.0,0.0
47494981,37790,0,1.0,-0.03125,0.015625,-0.015625,0.0,0.0,0.0
47496232,37791,0,1.005859375,-0.029296875,0.025390625,-0.00390625,0.0,0.0,0.0
47497483,37792,0,1.0078125,-0.025390625,0.015625,-0.009765625,0.0,0.0,0.0
47498734,37793,0,1.0,-0.0234375,0.017578125,-0.005859375,0.0,0.0,0.0
47499986,37794,0,1.0078125,-0.021484375,0.017578125,-0.00390625,0.0,0.0,0.0
47501236,37795,0,1.0078125,-0.025390625,0.013671875,-0.01171875,0.0,0.0,0.0
47502486,37796,0,1.00390625,-0.029296875,0.01953125,-0.009765625,0.0,0.0,0.0
47503737,37797,0,1.0078125,-0.0234375,0.0078125,-0.015625,0.0,0.0,0.0
47504987,37798,0,1.01171875,-0.025390625,0.02734375,0.001953125,0.0,0.0,0.0
47506238,37799,0,1.001953125,-0.0234375,0.009765625,-0.013671875,0.0,0.0,0.0
47507489,37800,0,0.998046875,-0.025390625,0.01953125,-0.005859375,0.0,0.0,0.0
47508740,37801,0,1.005859375,-0.02734375,0.017578125,-0.009765625,0.0,0.0,0.0
47509991,37802,0,1.00390625,-0.0234375,0.015625,-0.0078125,0.0,0.0,0.0
47511241,37803,0,1.00390625,-0.029296875,0.005859375,-0.0234375,0.0,0.0,0.0
47512492,37804,0,1.00390625,-0.025390625,0.01171875,-0.013671875,0.0,0.0,0.0
47513744,37805,0,1.00390625,-0.025390625,0.015625,-0.009765625,0.0,0.0,0.0
47514994,37806,0,1.0078125,-0.021484375,0.01171875,-0.009765625,0.0,0.0,0.0
47516245,37807,0,1.005859375,-0.02734375,0.01171875,-0.015625,0.0,0.0,0.0
47517496,37808,0,1.00390625,-0.025390625,0.0078125,-0.017578125,0.0,0.0,0.0
47518747,37809,0,1.0,-0.021484375,0.01171875,-0.009765625,0.0,0.0,0.0
47519998,37810,0,0.998046875,-0.02734375,0.021484375,-0.005859375,0.0,0.0,0.0
47521249,37811,0,1.005859375,-0.025390625,0.017578125,-0.0078125,0.0,0.0,0.0
47522499,37812,0,1.0078125,-0.029296875,0.015625,-0.013671875,0.0,0.0,0.0
47523751,37813,0,1.00390625,-0.02734375,0.01953125,-0.0078125,0.0,0.0,0.0
47525002,37814,0,1.0078125,-0.021484375,0.01171875,-0.009765625,0.0,0.0,0.0
47526253,37815,0,1.0,-0.02734375,0.01953125,-0.0078125,0.0,0.0,0.0
47527503,37816,0,1.0,-0.029296875,0.015625,-0.013671875,0.0,0.0,0.0
47528755,37817,0,0.998046875,-0.029296875,0.013671875,-0.015625,0.0,0.0,0.0
47530005,37818,0,1.001953125,-0.025390625,-0.00390625,-0.029296875,0.0,0.0,0.0
47531256,37819,0,0.99609375,-0.02734375,0.015625,-0.01171875,0.0,0.0,0.0
47532506,37820,0,1.005859375,-0.0234375,0.01953125,-0.00390625,0.0,0.0,0.0
47533757,37821,0,1.0,-0.025390625,0.013671875,-0.01171875,0.0,0.0,0.0
47535008,37822,0,1.00390625,-0.025390625,0.0234375,-0.001953125,0.0,0.0,0.0
47536258,37823,0,1.001953125,-0.03125,0.017578125,-0.013671875,0.0,0.0,0.0
47537508,37824,0,1.00390625,-0.0234375,0.01953125,-0.00390625,0.0,0.0,0.0
47538759,37825,0,1.001953125,-0.025390625,0.015625,-0.009765625,0.0,0.0,0.0
47540009,37826,0,1.005859375,-0.025390625,0.013671875,-0.01171875,0.0,0.0,0.0
47541259,37827,0,1.001953125,-0.0234375,0.0078125,-0.015625,0.0,0.0,0.0
47542510,37828,0,1.00390625,-0.03125,0.017578125,-0.013671875,0.0,0.0,0.0
47543762,37829,0,1.001953125,-0.02734375,0.015625,-0.01171875,0.0,0.0,0.0
47545012,37830,0,1.001953125,-0.02734375,0.017578125,-0.009765625,0.0,0.0,0.0
47546271,37831,0,1.005859375,-0.03125,0.015625,-0.015625,0.0,0.0,0.0
47547521,37832,0,0.998046875,-0.025390625,0.015625,-0.009765625,0.0,0.0,0.0
47548773,37833,0,1.001953125,-0.021484375,0.01171875,-0.009765625,0.0,0.0,0.0
47550023,37834,0,1.009765625,-0.021484375,0.013671875,-0.0078125,0.0,0.0,0.0
47551274,37835,0,1.00390625,-0.029296875,0.021484375,-0.0078125,0.0,0.0,0.0
47552525,37836,0,1.01171875,-0.01953125,0.01171875,-0.0078125,0.0,0.0,0.0
47553776,37837,0,0.99609375,-0.03125,0.0078125,-0.0234375,0.0,0.0,0.0
47555026,37838,0,0.998046875,-0.02734375,0.009765625,-0.017578125,0.0,0.0,0.0
47556276,37839,0,1.001953125,-0.025390625,0.013671875,-0.01171875,0.0,0.0,0.0
47557527,37840,0,1.01171875,-0.02734375,0.009765625,-0.017578125,0.0,0.0,0.0
47558778,37841,0,1.00390625,-0.03125,0.0234375,-0.0078125,0.0,0.0,0.0
47560029,37842,0,1.01171875,-0.02734375,0.021484375,-0.005859375,0.0,0.0,0.0
47561280,37843,0,1.00390625,-0.02734375,0.013671875,-0.013671875,0.0,0.0,0.0
47562531,37844,0,1.0078125,-0.025390625,0.017578125,-0.0078125,0.0,0.0,0.0
47563783,37845,0,1.001953125,-0.02734375,0.017578125,-0.009765625,0.0,0.0,0.0
47565034,37846,0,1.001953125,-0.025390625,0.017578125,-0.0078125,0.0,0.0,0.0
47566286,37847,0,1.00390625,-0.0234375,0.017578125,-0.005859375,0.0,0.0,0.0
47567537,37848,0,0.998046875,-0.025390625,0.015625,-0.009765625,0.0,0.0,0.0
47568789,37849,0,1.00390625,-0.0234375,0.01171875,-0.01171875,0.0,0.0,0.0
47570039,37850,0,1.001953125,-0.025390625,0.017578125,-0.0078125,0.0,0.0,0.0
47571289,37851,0,1.005859375,-0.0234375,0.01953125,-0.00390625,0.0,0.0,0.0
47572541,37852,0,1.0,-0.025390625,0.013671875,-0.01171875,0.0,0.0,0.0
47573792,37853,0,0.998046875,-0.021484375,0.013671875,-0.0078125,0.0,0.0,0.0
47575044,37854,0,1.0078125,-0.02734375,0.01171875,-0.015625,0.0,0.0,0.0
47576294,37855,0,1.001953125,-0.033203125,0.017578125,-0.015625,0.0,0.0,0.0
47577544,37856,0,1.00390625,-0.021484375,0.01953125,-0.001953125,0.0,0.0,0.0
47578795,37857,0,0.99609375,-0.029296875,0.009765625,-0.01953125,0.0,0.0,0.0
47580045,37858,0,1.0078125,-0.03125,0.013671875,-0.017578125,0.0,0.0,0.0
47581295,37859,0,0.998046875,-0.025390625,0.0078125,-0.017578125,0.0,0.0,0.0
47582546,37860,0,1.00390625,-0.02734375,0.015625,-0.01171875,0.0,0.0,0.0
47583797,37861,0,1.00390625,-0.029296875,0.015625,-0.013671875,0.0,0.0,0.0
47585048,37862,0,1.0,-0.025390625,0.01953125,-0.005859375,0.0,0.0,0.0
47586299,37863,0,1.001953125,-0.0234375,0.009765625,-0.013671875,0.0,0.0,0.0
47587550,37864,0,1.005859375,-0.02734375,0.015625,-0.01171875,0.0,0.0,0.0
47588800,37865,0,1.001953125,-0.029296875,0.013671875,-0.015625,0.0,0.0,0.0
47590052,37866,0,1.00390625,-0.0234375,0.013671875,-0.009765625,0.0,0.0,0.0
47591303,37867,0,1.005859375,-0.021484375,0.017578125,-0.00390625,0.0,0.0,0.0
47592554,37868,0,0.998046875,-0.025390625,0.017578125,-0.0078125,0.0,0.0,0.0
47593805,37869,0,1.001953125,-0.025390625,0.01171875,-0.013671875,0.0,0.0,0.0
47595057,37870,0,1.005859375,-0.0234375,0.01953125,-0.00390625,0.0,0.0,0.0
47596308,37871,0,1.0078125,-0.029296875,0.013671875,-0.015625,0.0,0.0,0.0
47597560,37872,0,1.001953125,-0.02734375,0.0078125,-0.01953125,0.0,0.0,0.0
47598811,37873,0,1.001953125,-0.02734375,0.013671875,-0.013671875,0.0,0.0,0.0
47600063,37874,0,1.00390625,-0.0234375,0.01953125,-0.00390625,0.0,0.0,0.0
47601314,37875,0,1.005859375,-0.02734375,0.009765625,-0.017578125,0.0,0.0,0.0
47602565,37876,0,1.0,-0.021484375,0.01953125,-0.001953125,0.0,0.0,0.0
47603816,37877,0,1.009765625,-0.025390625,0.015625,-0.009765625,0.0,0.0,0.0
47605066,37878,0,1.00390625,-0.017578125,0.01171875,-0.005859375,0.0,0.0,0.0
47606318,37879,0,1.005859375,-0.0234375,0.021484375,-0.001953125,0.0,0.0,0.0
47607569,37880,0,0.998046875,-0.01953125,0.021484375,0.001953125,0.0,0.0,0.0
47608819,37881,0,1.0078125,-0.0234375,0.01171875,-0.01171875,0.0,0.0,0.0
47610070,37882,0,0.990234375,-0.02734375,0.015625,-0.01171875,0.0,0.0,0.0
47611321,37883,0,1.005859375,-0.029296875,0.01953125,-0.009765625,0.0,0.0,0.0
47612572,37884,0,1.0,-0.025390625,0.015625,-0.009765625,0.0,0.0,0.0
47613823,37885,0,1.001953125,-0.025390625,0.017578125,-0.0078125,0.0,0.0,0.0
47615074,37886,0,1.001953125,-0.03125,0.017578125,-0.013671875,0.0,0.0,0.0
47616325,37887,0,1.005859375,-0.021484375,0.017578125,-0.00390625,0.0,0.0,0.0
47617575,37888,0,1.0,-0.025390625,0.017578125,-0.0078125,0.0,0.0,0.0
47618825,37889,0,1.005859375,-0.02734375,0.013671875,-0.013671875,0.0,0.0,0.0
47620076,37890,0,1.0078125,-0.029296875,0.013671875,-0.015625,0.0,0.0,0.0
47621326,37891,0,1.001953125,-0.02734375,0.01171875,-0.015625,0.0,0.0,0.0
47622577,37892,0,1.0078125,-0.0234375,0.013671875,-0.009765625,0.0,0.0,0.0
47623828,37893,0,1.00390625,-0.0234375,0.017578125,-0.005859375,0.0,0.0,0.0
47625078,37894,0,1.01171875,-0.025390625,0.01171875,-0.013671875,0.0,0.0,0.0
47626329,37895,0,0.998046875,-0.0234375,0.01171875,-0.01171875,0.0,0.0,0.0
47627581,37896,0,1.005859375,-0.02734375,0.015625,-0.01171875,0.0,0.0,0.0
47628833,37897,0,0.99609375,-0.0234375,0.013671875,-0.009765625,0.0,0.0,0.0
47630083,37898,0,1.00390625,-0.033203125,0.009765625,-0.0234375,0.0,0.0,0.0
47631333,37899,0,1.0078125,-0.03125,0.00390625,-0.02734375,0.0,0.0,0.0
47632584,37900,0,1.013671875,-0.02734375,0.013671875,-0.013671875,0.0,0.0,0.0
47633835,37901,0,1.001953125,-0.029296875,0.009765625,-0.01953125,0.0,0.0,0.0
47635085,37902,0,1.01171875,-0.025390625,0.017578125,-0.0078125,0.0,0.0,0.0
47636336,37903,0,1.0078125,-0.02734375,0.021484375,-0.005859375,0.0,0.0,0.0
47637587,37904,0,0.998046875,-0.02734375,0.015625,-0.01171875,0.0,0.0,0.0
47638838,37905,0,1.0078125,-0.02734375,0.017578125,-0.009765625,0.0,0.0,0.0
47640090,37906,0,1.001953125,-0.02734375,0.015625,-0.01171875,0.0,0.0,0.0
47641341,37907,0,1.005859375,-0.025390625,0.017578125,-0.0078125,0.0,0.0,0.0
47642592,37908,0,0.99609375,-0.02734375,0.013671875,-0.013671875,0.0,0.0,0.0
47643844,37909,0,1.00390625,-0.033203125,0.017578125,-0.015625,0.0,0.0,0.0
47645095,37910,0,1.005859375,-0.025390625,0.013671875,-0.01171875,0.0,0.0,0.0
47646346,37911,0,1.0078125,-0.02734375,0.013671875,-0.013671875,0.0,0.0,0.0
47647597,37912,0,1.005859375,-0.02734375,0.013671875,-0.013671875,0.0,0.0,0.0
47648849,37913,0,1.0,-0.025390625,0.015625,-0.009765625,0.0,0.0,0.0
47650099,37914,0,1.001953125,-0.025390625,0.009765625,-0.015625,0.0,0.0,0.0
47651351,37915,0,1.001953125,-0.025390625,0.015625,-0.009765625,0.0,0.0,0.0
47652602,37916,0,1.0078125,-0.02734375,0.021484375,-0.005859375,0.0,0.0,0.0
47653854,37917,0,1.009765625,-0.02734375,0.017578125,-0.009765625,0.0,0.0,0.0
47655104,37918,0,1.00390625,-0.02734375,0.01953125,-0.0078125,0.0,0.0,0.0
47656354,37919,0,1.00390625,-0.0234375,0.0078125,-0.015625,0.0,0.0,0.0
47657605,37920,0,1.021484375,-0.0234375,0.013671875,-0.009765625,0.0,0.0,0.0
47658855,37921,0,1.005859375,-0.0234375,0.021484375,-0.001953125,0.0,0.0,0.0
47660107,37922,0,1.001953125,-0.0234375,0.015625,-0.0078125,0.0,0.0,0.0
47661358,37923,0,0.9921875,-0.021484375,0.017578125,-0.00390625,0.0,0.0,0.0
47662609,37924,0,0.990234375,-0.021484375,0.021484375,0.0,0.0,0.0,0.0
47663859,37925,0,1.001953125,-0.02734375,0.009765625,-0.017578125,0.0,0.0,0.0
47665111,37926,0,0.998046875,-0.029296875,0.017578125,-0.01171875,0.0,0.0,0.0
47666362,37927,0,1.001953125,-0.0234375,0.021484375,-0.001953125,0.0,0.0,0.0
47667613,37928,0,1.00390625,-0.025390625,0.013671875,-0.01171875,0.0,0.0,0.0
47668865,37929,0,1.0,-0.0234375,0.013671875,-0.009765625,0.0,0.0,0.0
47670115,37930,0,1.009765625,-0.0234375,0.009765625,-0.013671875,0.0,0.0,0.0
47671365,37931,0,0.998046875,-0.02734375,0.01953125,-0.0078125,0.0,0.0,0.0
47672617,37932,0,1.001953125,-0.029296875,0.009765625,-0.01953125,0.0,0.0,0.0
47673867,37933,0,1.0078125,-0.02734375,0.01171875,-0.015625,0.0,0.0,0.0
47675118,37934,0,1.001953125,-0.0234375,0.01171875,-0.01171875,0.0,0.0,0.0
47676369,37935,0,1.00390625,-0.025390625,0.013671875,-0.01171875,0.0,0.0,0.0
47677620,37936,0,1.001953125,-0.02734375,0.017578125,-0.009765625,0.0,0.0,0.0
47678871,37937,0,1.00390625,-0.021484375,0.01953125,-0.001953125,0.0,0.0,0.0
47680123,37938,0,1.00390625,-0.025390625,0.009765625,-0.015625,0.0,0.0,0.0
47681374,37939,0,1.005859375,-0.025390625,0.01171875,-0.013671875,0.0,0.0,0.0
47682624,37940,0,1.005859375,-0.0234375,0.015625,-0.0078125,0.0,0.0,0.0
47683875,37941,0,1.005859375,-0.02734375,0.013671875,-0.013671875,0.0,0.0,0.0
47685125,37942,0,1.00390625,-0.033203125,0.013671875,-0.01953125,0.0,0.0,0.0
47686375,37943,0,1.00390625,-0.02734375,0.0078125,-0.01953125,0.0,0.0,0.0
47687626,37944,0,1.0078125,-0.0234375,0.0234375,0.0,0.0,0.0,0.0
47688877,37945,0,1.005859375,-0.025390625,0.013671875,-0.01171875,0.0,0.0,0.0
47690129,37946,0,0.994140625,-0.029296875,0.01171875,-0.017578125,0.0,0.0,0.0
47691380,37947,0,1.0,-0.021484375,0.021484375,0.0,0.0,0.0,0.0
47692630,37948,0,1.009765625,-0.025390625,0.015625,-0.009765625,0.0,0.0,0.0
47693881,37949,0,1.0,-0.025390625,0.01953125,-0.005859375,0.0,0.0,0.0
47695133,37950,0,1.005859375,-0.02734375,0.015625,-0.01171875,0.0,0.0,0.0
47696384,37951,0,1.001953125,-0.03125,0.017578125,-0.013671875,0.0,0.0,0.0
47697634,37952,0,1.00390625,-0.025390625,0.01953125,-0.005859375,0.0,0.0,0.0
47698886,37953,0,1.001953125,-0.025390625,0.013671875,-0.01171875,0.0,0.0,0.0
47700136,37954,0,1.001953125,-0.025390625,0.01171875,-0.013671875,0.0,0.0,0.0
47701386,37955,0,1.005859375,-0.02734375,0.01171875,-0.015625,0.0,0.0,0.0
47702638,37956,0,1.00390625,-0.029296875,0.017578125,-0.01171875,0.0,0.0,0.0
47703888,37957,0,1.0078125,-0.03125,0.01953125,-0.01171875,0.0,0.0,0.0
47705139,37958,0,1.005859375,-0.02734375,0.021484375,-0.005859375,0.0,0.0,0.0
47706391,37959,0,1.00390625,-0.0234375,0.009765625,-0.013671875,0.0,0.0,0.0
47707641,37960,0,1.00390625,-0.025390625,0.01953125,-0.005859375,0.0,0.0,0.0
47708892,37961,0,1.001953125,-0.03515625,0.01171875,-0.0234375,0.0,0.0,0.0
47710142,37962,0,1.0,-0.025390625,0.01171875,-0.013671875,0.0,0.0,0.0
47711393,37963,0,1.001953125,-0.02734375,0.017578125,-0.009765625,0.0,0.0,0.0
47712645,37964,0,1.009765625,-0.029296875,0.021484375,-0.0078125,0.0,0.0,0.0
47713895,37965,0,1.001953125,-0.02734375,0.021484375,-0.005859375,0.0,0.0,0.0
47715147,37966,0,1.0,-0.029296875,0.015625,-0.013671875,0.0,0.0,0.0
47716397,37967,0,1.017578125,-0.025390625,0.009765625,-0.015625,0.0,0.0,0.0
47717649,37968,0,1.001953125,-0.0234375,0.0078125,-0.015625,0.0,0.0,0.0
47718899,37969,0,1.005859375,-0.021484375,0.021484375,0.0,0.0,0.0,0.0
47720149,37970,0,1.001953125,-0.029296875,0.01171875,-0.017578125,0.0,0.0,0.0
47721399,37971,0,1.005859375,-0.025390625,0.021484375,-0.00390625,0.0,0.0,0.0
47722650,37972,0,1.001953125,-0.0234375,0.017578125,-0.005859375,0.0,0.0,0.0
47723902,37973,0,1.0,-0.0234375,0.021484375,-0.001953125,0.0,0.0,0.0
47725153,37974,0,1.00390625,-0.029296875,0.013671875,-0.015625,0.0,0.0,0.0
47726404,37975,0,0.998046875,-0.0234375,0.01953125,-0.00390625,0.0,0.0,0.0
47727654,37976,0,1.001953125,-0.025390625,0.01171875,-0.013671875,0.0,0.0,0.0
47728904,37977,0,1.005859375,-0.025390625,0.01171875,-0.013671875,0.0,0.0,0.0
47730155,37978,0,1.00390625,-0.025390625,0.009765625,-0.015625,0.0,0.0,0.0
47731407,37979,0,1.001953125,-0.0234375,0.015625,-0.0078125,0.0,0.0,0.0
47732657,37980,0,1.005859375,-0.0234375,0.013671875,-0.009765625,0.0,0.0,0.0
47733909,37981,0,1.001953125,-0.029296875,0.01953125,-0.009765625,0.0,0.0,0.0
47735159,37982,0,1.00390625,-0.02734375,0.015625,-0.01171875,0.0,0.0,0.0
47736409,37983,0,1.0078125,-0.0234375,0.009765625,-0.013671875,0.0,0.0,0.0
47737661,37984,0,1.005859375,-0.0234375,0.017578125,-0.005859375,0.0,0.0,0.0
47738911,37985,0,0.99609375,-0.02734375,0.01171875,-0.015625,0.0,0.0,0.0
47740161,37986,0,1.001953125,-0.03125,0.015625,-0.015625,0.0,0.0,0.0
47741411,37987,0,1.001953125,-0.02734375,0.021484375,-0.005859375,0.0,0.0,0.0
47742663,37988,0,1.009765625,-0.021484375,0.013671875,-0.0078125,0.0,0.0,0.0
47743913,37989,0,0.998046875,-0.03125,0.015625,-0.015625,0.0,0.0,0.0
47745164,37990,0,1.001953125,-0.03125,0.013671875,-0.017578125,0.0,0.0,0.0
47746415,37991,0,0.998046875,-0.02734375,0.017578125,-0.009765625,0.0,0.0,0.0
47747666,37992,0,1.0078125,-0.0234375,0.01953125,-0.00390625,0.0,0.0,0.0
47748916,37993,0,1.00390625,-0.0234375,0.01171875,-0.01171875,0.0,0.0,0.0
47750167,37994,0,1.0,-0.025390625,0.01171875,-0.013671875,0.0,0.0,0.0
47751417,37995,0,1.00390625,-0.029296875,0.015625,-0.013671875,0.0,0.0,0.0
47752668,37996,0,1.005859375,-0.02734375,0.017578125,-0.009765625,0.0,0.0,0.0
47753920,37997,0,1.001953125,-0.0234375,0.01171875,-0.01171875,0.0,0.0,0.0
47755171,37998,0,1.001953125,-0.021484375,0.009765625,-0.01171875,0.0,0.0,0.0
47756421,37999,0,1.0,-0.0234375,0.015625,-0.0078125,0.0,0.0,0.0
47757672,38000,0,1.00390625,-0.0234375,0.01171875,-0.01171875,0.0,0.0,0.0
47758924,38001,0,1.0,-0.025390625,0.01953125,-0.005859375,0.0,0.0,0.0
47760174,38002,0,1.0,-0.0234375,0.015625,-0.0078125,0.0,0.0,0.0
47761425,38003,0,1.001953125,-0.029296875,0.013671875,-0.015625,0.0,0.0,0.0
47762677,38004,0,1.001953125,-0.017578125,0.01171875,-0.005859375,0.0,0.0,0.0
47763927,38005,0,1.00390625,-0.025390625,0.013671875,-0.01171875,0.0,0.0,0.0
47765177,38006,0,1.001953125,-0.03125,0.009765625,-0.021484375,0.0,0.0,0.0
47766429,38007,0,1.005859375,-0.029296875,0.015625,-0.013671875,0.0,0.0,0.0
47767679,38008,0,0.99609375,-0.0234375,0.017578125,-0.005859375,0.0,0.0,0.0
47768931,38009,0,0.99609375,-0.02734375,0.0078125,-0.01953125,0.0,0.0,0.0
47770181,38010,0,1.01171875,-0.029296875,0.0078125,-0.021484375,0.0,0.0,0.0
47771431,38011,0,1.00390625,-0.02734375,0.025390625,-0.001953125,0.0,0.0,0.0
47772683,38012,0,1.0078125,-0.029296875,0.017578125,-0.01171875,0.0,0.0,0.0
47773933,38013,0,1.001953125,-0.025390625,0.01171875,-0.013671875,0.0,0.0,0.0
47775183,38014,0,1.00390625,-0.029296875,0.013671875,-0.015625,0.0,0.0,0.0
47776434,38015,0,1.005859375,-0.02734375,0.013671875,-0.013671875,0.0,0.0,0.0
47777685,38016,0,0.998046875,-0.02734375,0.009765625,-0.017578125,0.0,0.0,0.0
47778936,38017,0,0.998046875,-0.029296875,0.017578125,-0.01171875,0.0,0.0,0.0
47780186,38018,0,1.005859375,-0.02734375,0.015625,-0.01171875,0.0,0.0,0.0
47781437,38019,0,1.0078125,-0.021484375,0.017578125,-0.00390625,0.0,0.0,0.0
47782687,38020,0,1.0078125,-0.03125,0.017578125,-0.013671875,0.0,0.0,0.0
47783937,38021,0,1.001953125,-0.02734375,0.01171875,-0.015625,0.0,0.0,0.0
47785188,38022,0,1.001953125,-0.02734375,0.015625,-0.01171875,0.0,0.0,0.0
47786440,38023,0,1.0,-0.025390625,0.017578125,-0.0078125,0.0,0.0,0.0
47787690,38024,0,1.0,-0.025390625,0.015625,-0.009765625,0.0,0.0,0.0
47788942,38025,0,1.0,-0.025390625,0.01171875,-0.013671875,0.0,0.0,0.0
47790193,38026,0,1.00390625,-0.02734375,0.021484375,-0.005859375,0.0,0.0,0.0
47791445,38027,0,0.998046875,-0.025390625,0.021484375,-0.00390625,0.0,0.0,0.0
47792695,38028,0,1.001953125,-0.03125,0.01171875,-0.01953125,0.0,0.0,0.0
47793947,38029,0,1.00390625,-0.03125,0.013671875,-0.017578125,0.0,0.0,0.0
47795198,38030,0,1.009765625,-0.02734375,0.015625,-0.01171875,0.0,0.0,0.0
47796450,38031,0,1.00390625,-0.029296875,0.015625,-0.013671875,0.0,0.0,0.0
47797700,38032,0,0.990234375,-0.033203125,0.017578125,-0.015625,0.0,0.0,0.0
47798952,38033,0,1.0,-0.029296875,0.017578125,-0.01171875,0.0,0.0,0.0
47800203,38034,0,1.0078125,-0.02734375,0.015625,-0.01171875,0.0,0.0,0.0
47801454,38035,0,1.00390625,-0.0234375,0.013671875,-0.009765625,0.0,0.0,0.0
47802705,38036,0,1.001953125,-0.02734375,0.01953125,-0.0078125,0.0,0.0,0.0
47803957,38037,0,1.005859375,-0.025390625,0.017578125,-0.0078125,0.0,0.0,0.0
47805207,38038,0,0.998046875,-0.02734375,0.009765625,-0.017578125,0.0,0.0,0.0
47806459,38039,0,1.0,-0.029296875,0.013671875,-0.015625,0.0,0.0,0.0
47807709,38040,0,0.998046875,-0.02734375,0.015625,-0.01171875,0.0,0.0,0.0
47808959,38041,0,1.0078125,-0.0234375,0.017578125,-0.005859375,0.0,0.0,0.0
47810209,38042,0,1.0,-0.021484375,0.0078125,-0.013671875,0.0,0.0,0.0
47811459,38043,0,1.009765625,-0.025390625,0.009765625,-0.015625,0.0,0.0,0.0
47812711,38044,0,1.0078125,-0.02734375,0.017578125,-0.009765625,0.0,0.0,0.0
47813961,38045,0,1.001953125,-0.025390625,0.015625,-0.009765625,0.0,0.0,0.0
47815213,38046,0,0.998046875,-0.029296875,0.01953125,-0.009765625,0.0,0.0,0.0
47816464,38047,0,0.998046875,-0.025390625,0.01953125,-0.005859375,0.0,0.0,0.0
47817715,38048,0,1.001953125,-0.021484375,0.017578125,-0.00390625,0.0,0.0,0.0
47818966,38049,0,1.005859375,-0.017578125,0.013671875,-0.00390625,0.0,0.0,0.0
47820216,38050,0,1.0078125,-0.029296875,0.001953125,-0.02734375,0.0,0.0,0.0
47821467,38051,0,1.013671875,-0.029296875,0.01171875,-0.017578125,0.0,0.0,0.0
47822718,38052,0,1.0078125,-0.01953125,0.015625,-0.00390625,0.0,0.0,0.0
47823968,38053,0,1.009765625,-0.029296875,0.013671875,-0.015625,0.0,0.0,0.0
47825219,38054,0,1.001953125,-0.025390625,0.015625,-0.009765625,0.0,0.0,0.0
47826470,38055,0,1.001953125,-0.029296875,0.01953125,-0.009765625,0.0,0.0,0.0
47827721,38056,0,1.00390625,-0.0234375,0.01171875,-0.01171875,0.0,0.0,0.0
47828971,38057,0,1.005859375,-0.025390625,0.015625,-0.009765625,0.0,0.0,0.0
47830223,38058,0,1.001953125,-0.025390625,0.01171875,-0.013671875,0.0,0.0,0.0
47831473,38059,0,1.00390625,-0.0234375,0.013671875,-0.009765625,0.0,0.0,0.0
47832723,38060,0,1.00390625,-0.025390625,0.01953125,-0.005859375,0.0,0.0,0.0
47833975,38061,0,1.0,-0.02734375,0.013671875,-0.013671875,0.0,0.0,0.0
47835226,38062,0,1.0078125,-0.02734375,0.01171875,-0.015625,0.0,0.0,0.0
47836476,38063,0,1.001953125,-0.0234375,0.013671875,-0.009765625,0.0,0.0,0.0
47837728,38064,0,1.0,-0.02734375,0.017578125,-0.009765625,0.0,0.0,0.0
47838979,38065,0,1.005859375,-0.0234375,0.01171875,-0.01171875,0.0,0.0,0.0
47840229,38066,0,1.001953125,-0.025390625,0.013671875,-0.01171875,0.0,0.0,0.0
47841481,38067,0,1.0078125,-0.025390625,0.01953125,-0.005859375,0.0,0.0,0.0
47842731,38068,0,1.005859375,-0.029296875,0.01953125,-0.009765625,0.0,0.0,0.0
47843981,38069,0,1.00390625,-0.025390625,0.005859375,-0.01953125,0.0,0.0,0.0
47845232,38070,0,1.00390625,-0.029296875,0.015625,-0.013671875,0.0,0.0,0.0
47846483,38071,0,1.0078125,-0.0234375,0.017578125,-0.005859375,0.0,0.0,0.0
47847734,38072,0,1.0078125,-0.0234375,0.021484375,-0.001953125,0.0,0.0,0.0
47848986,38073,0,0.998046875,-0.0234375,0.0234375,0.0,0.0,0.0,0.0
47850236,38074,0,1.005859375,-0.025390625,0.013671875,-0.01171875,0.0,0.0,0.0
47851486,38075,0,1.0,-0.02734375,0.013671875,-0.013671875,0.0,0.0,0.0
47852737,38076,0,1.00390625,-0.025390625,0.017578125,-0.0078125,0.0,0.0,0.0
47853987,38077,0,1.0078125,-0.025390625,0.015625,-0.009765625,0.0,0.0,0.0
47855238,38078,0,0.998046875,-0.021484375,0.015625,-0.005859375,0.0,0.0,0.0
47856489,38079,0,0.998046875,-0.025390625,0.01953125,-0.005859375,0.0,0.0,0.0
47857740,38080,0,0.998046875,-0.029296875,0.015625,-0.013671875,0.0,0.0,0.0
47858991,38081,0,1.005859375,-0.02734375,0.01171875,-0.015625,0.0,0.0,0.0
47860241,38082,0,1.001953125,-0.0234375,0.015625,-0.0078125,0.0,0.0,0.0
47861492,38083,0,1.001953125,-0.025390625,0.0078125,-0.017578125,0.0,0.0,0.0
47862744,38084,0,1.005859375,-0.021484375,0.017578125,-0.00390625,0.0,0.0,0.0
47863994,38085,0,1.005859375,-0.02734375,0.021484375,-0.005859375,0.0,0.0,0.0
47865245,38086,0,1.001953125,-0.02734375,0.015625,-0.01171875,0.0,0.0,-2.0127653492733942e-26
47867747,38088,0,1.001953125,-0.025390625,0.013671875,-0.01171875,0.0,0.0,0.0
47868998,38089,0,0.998046875,-0.0234375,0.017578125,-0.005859375,0.0,0.0,0.0
47870249,38090,0,1.0078125,-0.025390625,0.01953125,-0.005859375,0.0,0.0,0.0
47871499,38091,0,1.001953125,-0.0234375,0.01953125,-0.00390625,0.0,0.0,0.0
47872751,38092,0,1.001953125,-0.025390625,0.013671875,-0.01171875,0.0,0.0,0.0
47874002,38093,0,1.00390625,-0.03515625,0.013671875,-0.021484375,0.0,0.0,0.0
47875253,38094,0,0.9921875,-0.0234375,0.017578125,-0.005859375,0.0,0.0,0.0
47876503,38095,0,1.009765625,-0.01953125,0.02734375,0.0078125,0.0,0.0,0.0
47877755,38096,0,0.99609375,-0.0234375,0.01171875,-0.01171875,0.0,0.0,0.0
47879005,38097,0,0.994140625,-0.02734375,0.013671875,-0.013671875,0.0,0.0,0.0
47880256,38098,0,1.001953125,-0.02734375,0.01953125,-0.0078125,0.0,0.0,0.0
47881506,38099,0,1.0,-0.0234375,0.017578125,-0.005859375,0.0,0.0,0.0
47882757,38100,0,1.0078125,-0.025390625,0.009765625,-0.015625,0.0,0.0,0.0
47884008,38101,0,1.001953125,-0.029296875,0.01171875,-0.017578125,0.0,0.0,0.0
47885258,38102,0,1.001953125,-0.025390625,0.01171875,-0.013671875,0.0,0.0,0.0
47886508,38103,0,1.00390625,-0.025390625,0.015625,-0.009765625,0.0,0.0,0.0
47887759,38104,0,1.001953125,-0.0234375,0.013671875,-0.009765625,0.0,0.0,0.0
47889009,38105,0,1.0,-0.025390625,0.01171875,-0.013671875,0.0,0.0,0.0
47890259,38106,0,1.0,-0.025390625,0.01171875,-0.013671875,0.0,0.0,0.0
47891510,38107,0,1.0078125,-0.02734375,0.009765625,-0.017578125,0.0,0.0,0.0
47892762,38108,0,1.005859375,-0.029296875,0.0078125,-0.021484375,0.0,0.0,0.0
47894012,38109,0,1.005859375,-0.03125,0.017578125,-0.013671875,0.0,0.0,0.0
47895271,38110,0,1.00390625,-0.029296875,0.021484375,-0.0078125,0.0,0.0,0.0
47896521,38111,0,1.0078125,-0.029296875,0.013671875,-0.015625,0.0,0.0,0.0
47897773,38112,0,1.01171875,-0.029296875,0.01953125,-0.009765625,0.0,0.0,0.0
47899023,38113,0,0.99609375,-0.029296875,0.01953125,-0.009765625,0.0,0.0,0.0
47900274,38114,0,0.99609375,-0.02734375,0.017578125,-0.009765625,0.0,0.0,0.0
47901525,38115,0,1.005859375,-0.025390625,0.013671875,-0.01171875,0.0,0.0,0.0
47902776,38116,0,1.001953125,-0.02734375,0.015625,-0.01171875,0.0,0.0,0.0
47904026,38117,0,1.00390625,-0.0234375,0.013671875,-0.009765625,0.0,0.0,0.0
47905276,38118,0,1.0078125,-0.03125,0.013671875,-0.017578125,0.0,0.0,0.0
47906527,38119,0,1.0078125,-0.02734375,0.017578125,-0.009765625,0.0,0.0,0.0
47907778,38120,0,0.998046875,-0.02734375,0.017578125,-0.009765625,0.0,0.0,0.0
47909029,38121,0,1.00390625,-0.021484375,0.021484375,0.0,0.0,0.0,0.0
47910280,38122,0,1.001953125,-0.0234375,0.01171875,-0.01171875,0.0,0.0,0.0
47911531,38123,0,1.0,-0.025390625,0.017578125,-0.0078125,0.0,0.0,0.0
47912783,38124,0,1.0078125,-0.029296875,0.021484375,-0.0078125,0.0,0.0,0.0
47914034,38125,0,1.009765625,-0.025390625,0.01953125,-0.005859375,0.0,0.0,0.0
47915286,38126,0,1.0078125,-0.02734375,0.015625,-0.01171875,0.0,0.0,0.0
47916537,38127,0,1.009765625,-0.029296875,0.013671875,-0.015625,0.0,0.0,0.0
47917789,38128,0,0.99609375,-0.02734375,0.013671875,-0.013671875,0.0,0.0,0.0
47919039,38129,0,1.005859375,-0.02734375,0.01171875,-0.015625,0.0,0.0,0.0
47920289,38130,0,1.0078125,-0.029296875,0.01171875,-0.017578125,0.0,0.0,0.0
47921541,38131,0,1.0,-0.03125,0.015625,-0.015625,0.0,0.0,0.0
47922792,38132,0,1.0078125,-0.02734375,0.01953125,-0.0078125,0.0,0.0,0.0
47924044,38133,0,1.0078125,-0.02734375,0.01171875,-0.015625,0.0,0.0,0.0
47925294,38134,0,1.0078125,-0.025390625,0.021484375,-0.00390625,0.0,0.0,0.0
47926544,38135,0,1.001953125,-0.02734375,0.017578125,-0.009765625,0.0,0.0,0.0
47927795,38136,0,1.001953125,-0.025390625,0.015625,-0.009765625,0.0,0.0,0.0
47929045,38137,0,1.01171875,-0.02734375,0.01171875,-0.015625,0.0,0.0,0.0
47930295,38138,0,1.00390625,-0.025390625,0.013671875,-0.01171875,0.0,0.0,0.0
47931546,38139,0,0.998046875,-0.033203125,0.009765625,-0.0234375,0.0,0.0,0.0
47932797,38140,0,1.00390625,-0.025390625,0.017578125,-0.0078125,0.0,0.0,0.0
47934048,38141,0,1.001953125,-0.025390625,0.021484375,-0.00390625,0.0,0.0,0.0
47935299,38142,0,1.005859375,-0.025390625,0.01953125,-0.005859375,0.0,0.0,0.0
47936550,38143,0,1.005859375,-0.02734375,0.01171875,-0.015625,0.0,0.0,0.0
47937800,38144,0,1.0,-0.029296875,0.015625,-0.013671875,0.0,0.0,0.0
47939052,38145,0,1.005859375,-0.0234375,0.01171875,-0.01171875,0.0,0.0,0.0
47940303,38146,0,1.001953125,-0.025390625,0.015625,-0.009765625,0.0,0.0,0.0
47941554,38147,0,1.001953125,-0.02734375,0.01171875,-0.015625,0.0,0.0,0.0
47942805,38148,0,1.005859375,-0.0234375,0.015625,-0.0078125,0.0,0.0,0.0
47944057,38149,0,1.005859375,-0.0234375,0.017578125,-0.005859375,0.0,0.0,0.0
47945308,38150,0,1.0078125,-0.025390625,0.017578125,-0.0078125,0.0,0.0,0.0
47946560,38151,0,0.998046875,-0.025390625,0.01953125,-0.005859375,0.0,0.0,0.0
47947811,38152,0,1.0078125,-0.0234375,0.01953125,-0.00390625,0.0,0.0,0.0
47949063,38153,0,0.998046875,-0.029296875,0.015625,-0.013671875,0.0,0.0,0.0
47950314,38154,0,1.0,-0.02734375,0.015625,-0.01171875,0.0,0.0,0.0
47951565,38155,0,1.0078125,-0.025390625,0.01171875,-0.013671875,0.0,0.0,0.0
47952816,38156,0,1.01171875,-0.02734375,0.0078125,-0.01953125,0.0,0.0,0.0
47954066,38157,0,1.0078125,-0.025390625,0.013671875,-0.01171875,0.0,0.0,0.0
47955318,38158,0,1.0078125,-0.0234375,0.015625,-0.0078125,0.0,0.0,0.0
47956569,38159,0,1.009765625,-0.0234375,0.017578125,-0.005859375,0.0,0.0,0.0
47957819,38160,0,1.00390625,-0.029296875,0.017578125,-0.01171875,0.0,0.0,0.0
47959070,38161,0,1.0,-0.025390625,0.017578125,-0.0078125,0.0,0.0,0.0
47960321,38162,0,1.005859375,-0.025390625,0.013671875,-0.01171875,0.0,0.0,0.0
47961572,38163,0,0.998046875,-0.0234375,0.021484375,-0.001953125,0.0,0.0,0.0
47962823,38164,0,1.0,-0.02734375,0.01953125,-0.0078125,0.0,0.0,0.0
47964074,38165,0,1.0078125,-0.02734375,0.01953125,-0.0078125,0.0,0.0,0.0
47965325,38166,0,1.001953125,-0.02734375,0.015625,-0.01171875,0.0,0.0,0.0
47966575,38167,0,1.0,-0.025390625,0.017578125,-0.0078125,0.0,0.0,0.0
47967825,38168,0,1.001953125,-0.02734375,0.015625,-0.01171875,0.0,0.0,0.0
47969076,38169,0,1.001953125,-0.02734375,0.013671875,-0.013671875,0.0,0.0,0.0
47970326,38170,0,1.00390625,-0.029296875,0.013671875,-0.015625,0.0,0.0,0.0
47971577,38171,0,1.00390625,-0.02734375,0.01171875,-0.015625,0.0,0.0,0.0
47972828,38172,0,1.001953125,-0.02734375,0.015625,-0.01171875,0.0,0.0,0.0
47974078,38173,0,1.0078125,-0.029296875,0.01171875,-0.017578125,0.0,0.0,0.0
47975329,38174,0,1.009765625,-0.025390625,0.017578125,-0.0078125,0.0,0.0,0.0
47976581,38175,0,1.001953125,-0.021484375,0.017578125,-0.00390625,0.0,0.0,0.0
47977833,38176,0,0.998046875,-0.029296875,0.017578125,-0.01171875,0.0,0.0,0.0
47979083,38177,0,0.998046875,-0.025390625,0.01953125,-0.005859375,0.0,0.0,0.0
47980333,38178,0,1.0,-0.025390625,0.01953125,-0.005859375,0.0,0.0,0.0
47981584,38179,0,1.015625,-0.0234375,-0.021484375,-0.044921875,0.0,0.0,0.0
47982835,38180,0,1.001953125,-0.0234375,0.0078125,-0.015625,0.0,0.0,0.0
47984085,38181,0,1.005859375,-0.0234375,0.00390625,-0.01953125,0.0,0.0,0.0
47985336,38182,0,1.009765625,-0.02734375,0.01953125,-0.0078125,0.0,0.0,0.0
47986587,38183,0,1.005859375,-0.029296875,0.009765625,-0.01953125,0.0,0.0,0.0
47987838,38184,0,1.00390625,-0.025390625,0.01953125,-0.005859375,0.0,0.0,0.0
47989090,38185,0,1.0,-0.025390625,0.009765625,-0.015625,0.0,0.0,0.0
47990341,38186,0,1.0078125,-0.021484375,0.017578125,-0.00390625,0.0,0.0,0.0
47991592,38187,0,0.99609375,-0.01953125,0.015625,-0.00390625,0.0,0.0,0.0
47992844,38188,0,0.998046875,-0.025390625,0.013671875,-0.01171875,0.0,0.0,0.0
47994095,38189,0,1.0078125,-0.025390625,0.009765625,-0.015625,0.0,0.0,0.0
47995346,38190,0,1.005859375,-0.0234375,0.015625,-0.0078125,0.0,0.0,0.0
47996597,38191,0,1.005859375,-0.02734375,0.021484375,-0.005859375,0.0,0.0,0.0
47997849,38192,0,0.99609375,-0.02734375,0.015625,-0.01171875,0.0,0.0,0.0
47999099,38193,0,1.005859375,-0.025390625,0.017578125,-0.0078125,0.0,0.0,0.0
48000351,38194,0,1.0,-0.02734375,0.015625,-0.01171875,0.0,0.0,0.0
48001602,38195,0,1.00390625,-0.03125,0.013671875,-0.017578125,0.0,0.0,0.0
48002854,38196,0,1.005859375,-0.02734375,0.013671875,-0.013671875,0.0,0.0,0.0
48004104,38197,0,1.001953125,-0.029296875,0.015625,-0.013671875,0.0,0.0,0.0
48005354,38198,0,1.0,-0.025390625,0.017578125,-0.0078125,0.0,0.0,0.0
48006605,38199,0,1.001953125,-0.03125,0.015625,-0.015625,0.0,0.0,0.0
48007855,38200,0,1.0,-0.029296875,0.009765625,-0.01953125,0.0,0.0,0.0
48009107,38201,0,1.00390625,-0.033203125,0.01953125,-0.013671875,0.0,0.0,0.0
48010358,38202,0,1.005859375,-0.03125,0.01953125,-0.01171875,0.0,0.0,0.0
48011609,38203,0,1.00390625,-0.025390625,0.015625,-0.009765625,0.0,0.0,0.0
48012859,38204,0,0.99609375,-0.02734375,0.013671875,-0.013671875,0.0,0.0,0.0
48014111,38205,0,1.0078125,-0.025390625,0.01171875,-0.013671875,0.0,0.0,0.0
48015362,38206,0,0.998046875,-0.02734375,0.017578125,-0.009765625,0.0,0.0,0.0
48016613,38207,0,1.0,-0.025390625,0.013671875,-0.01171875,0.0,0.0,0.0
48017865,38208,0,1.0078125,-0.025390625,0.017578125,-0.0078125,0.0,0.0,0.0
48019115,38209,0,1.005859375,-0.029296875,0.017578125,-0.01171875,0.0,0.0,0.0
48020365,38210,0,1.001953125,-0.03125,0.017578125,-0.013671875,0.0,0.0,0.0
48021617,38211,0,0.99609375,-0.03515625,0.0078125,-0.02734375,0.0,0.0,0.0
48022867,38212,0,1.005859375,-0.033203125,0.013671875,-0.01953125,0.0,0.0,0.0
48024118,38213,0,1.001953125,-0.033203125,0.009765625,-0.0234375,0.0,0.0,0.0
48025369,38214,0,0.998046875,-0.033203125,0.013671875,-0.01953125,0.0,0.0,0.0
48026620,38215,0,1.001953125,-0.0234375,0.021484375,-0.001953125,0.0,0.0,0.0
48027871,38216,0,1.001953125,-0.01953125,0.015625,-0.00390625,0.0,0.0,0.0
48029123,38217,0,1.0078125,-0.017578125,0.021484375,0.00390625,0.0,0.0,0.0
48030374,38218,0,0.99609375,-0.017578125,0.017578125,0.0,0.0,0.0,0.0
48031624,38219,0,0.998046875,-0.01171875,0.017578125,0.005859375,0.0,0.0,0.0
48032875,38220,0,0.99609375,-0.02734375,0.017578125,-0.009765625,0.0,0.0,0.0
48034125,38221,0,1.005859375,-0.025390625,0.017578125,-0.0078125,0.0,0.0,0.0
48035375,38222,0,1.00390625,-0.03125,0.021484375,-0.009765625,0.0,0.0,0.0
48036626,38223,0,1.01171875,-0.02734375,0.013671875,-0.013671875,0.0,0.0,0.0
48037877,38224,0,1.001953125,-0.033203125,0.01953125,-0.013671875,0.0,0.0,0.0
48039129,38225,0,1.005859375,-0.029296875,0.01171875,-0.017578125,0.0,0.0,0.0
48040380,38226,0,0.998046875,-0.029296875,0.013671875,-0.015625,0.0,0.0,0.0
48041630,38227,0,1.0078125,-0.025390625,0.017578125,-0.0078125,0.0,0.0,0.0
48042881,38228,0,0.998046875,-0.02734375,0.01171875,-0.015625,0.0,0.0,0.0
