t_us,frame_id,sensor_id,accX,accY,accZ,acc_sum_YZ,magX,magY,magZ
31198321,24762,0,0.998046875,-0.02734375,0.015625,-0.01171875,0.0,0.0,0.0
31199571,24763,0,1.005859375,-0.033203125,0.021484375,-0.01171875,0.0,0.0,0.0
31200823,24764,0,1.009765625,-0.033203125,0.017578125,-0.015625,0.0,0.0,0.0
31202074,24765,0,0.998046875,-0.03125,0.017578125,-0.013671875,0.0,0.0,-0.20865631103515625
31204575,24767,0,1.0078125,-0.03125,0.021484375,-0.009765625,0.0,0.0,0.0
31205825,24768,0,1.0,-0.029296875,0.015625,-0.013671875,0.0,0.0,0.0
31207076,24769,0,1.0078125,-0.03125,0.021484375,-0.009765625,0.0,0.0,0.0
31208326,24770,0,1.0,-0.029296875,0.021484375,-0.0078125,0.0,0.0,0.0
31209577,24771,0,1.005859375,-0.029296875,0.021484375,-0.0078125,0.0,0.0,0.0
31210828,24772,0,1.00390625,-0.029296875,0.017578125,-0.01171875,0.0,0.0,0.0
31212078,24773,0,1.00390625,-0.033203125,0.013671875,-0.01953125,0.0,0.0,0.0
31213329,24774,0,1.0,-0.03125,0.013671875,-0.017578125,0.0,0.0,0.0
31214581,24775,0,1.0,-0.03125,0.021484375,-0.009765625,0.0,0.0,0.0
31215833,24776,0,1.005859375,-0.033203125,0.015625,-0.017578125,0.0,0.0,0.0
31217083,24777,0,1.005859375,-0.02734375,0.017578125,-0.009765625,0.0,0.0,0.0
31218333,24778,0,1.005859375,-0.033203125,0.017578125,-0.015625,0.0,0.0,0.0
31219584,24779,0,1.005859375,-0.03125,0.01953125,-0.01171875,0.0,0.0,0.0
31220834,24780,0,1.005859375,-0.03125,0.0234375,-0.0078125,0.0,0.0,0.0
31222086,24781,0,0.99609375,-0.03125,0.015625,-0.015625,0.0,0.0,0.0
31223336,24782,0,1.0078125,-0.03125,0.017578125,-0.013671875,0.0,0.0,0.0
31224587,24783,0,0.998046875,-0.025390625,0.009765625,-0.015625,0.0,0.0,0.0
31225838,24784,0,1.005859375,-0.033203125,0.015625,-0.017578125,0.0,0.0,0.0
31227090,24785,0,1.00390625,-0.025390625,0.021484375,-0.00390625,0.0,0.0,0.0
31228341,24786,0,0.994140625,-0.025390625,0.013671875,-0.01171875,0.0,0.0,0.0
31229592,24787,0,1.0078125,-0.029296875,0.015625,-0.013671875,0.0,0.0,0.0
31230844,24788,0,1.005859375,-0.02734375,0.01953125,-0.0078125,0.0,0.0,0.0
31232095,24789,0,1.00390625,-0.02734375,0.021484375,-0.005859375,0.0,0.0,0.0
31233346,24790,0,0.99609375,-0.03515625,0.017578125,-0.017578125,0.0,0.0,0.0
31234597,24791,0,1.0,-0.029296875,0.021484375,-0.0078125,0.0,0.0,0.0
31235849,24792,0,1.001953125,-0.02734375,0.017578125,-0.009765625,0.0,0.0,0.0
31237099,24793,0,1.001953125,-0.029296875,0.015625,-0.013671875,0.0,0.0,0.0
31238351,24794,0,1.001953125,-0.025390625,0.01953125,-0.005859375,0.0,0.0,0.0
31239602,24795,0,1.0,-0.029296875,0.01953125,-0.009765625,0.0,0.0,0.0
31240854,24796,0,1.005859375,-0.029296875,0.017578125,-0.01171875,0.0,0.0,0.0
31242104,24797,0,0.99609375,-0.03125,0.013671875,-0.017578125,0.0,0.0,0.0
31243354,24798,0,1.001953125,-0.029296875,0.017578125,-0.01171875,0.0,0.0,0.0
31244605,24799,0,1.005859375,-0.029296875,0.017578125,-0.01171875,0.0,0.0,0.0
31245855,24800,0,1.00390625,-0.033203125,0.013671875,-0.01953125,0.0,0.0,0.0
31247107,24801,0,1.005859375,-0.025390625,0.017578125,-0.0078125,0.0,0.0,0.0
31248358,24802,0,0.99609375,-0.02734375,0.021484375,-0.005859375,0.0,0.0,0.0
31249609,24803,0,1.013671875,-0.02734375,0.01953125,-0.0078125,0.0,0.0,0.0
31250859,24804,0,1.00390625,-0.033203125,0.021484375,-0.01171875,0.0,0.0,0.0
31252111,24805,0,1.0078125,-0.029296875,0.01171875,-0.017578125,0.0,0.0,0.0
31253362,24806,0,1.0,-0.025390625,0.0234375,-0.001953125,0.0,0.0,0.0
31254613,24807,0,1.001953125,-0.03125,0.015625,-0.015625,0.0,0.0,0.0
31255865,24808,0,1.009765625,-0.033203125,0.017578125,-0.015625,0.0,0.0,0.0
31257115,24809,0,1.0078125,-0.02734375,0.017578125,-0.009765625,0.0,0.0,0.0
31258365,24810,0,1.001953125,-0.025390625,0.01953125,-0.005859375,0.0,0.0,0.0
31259617,24811,0,1.001953125,-0.03125,0.017578125,-0.013671875,0.0,0.0,0.0
31260867,24812,0,1.00390625,-0.03125,0.015625,-0.015625,0.0,0.0,0.0
31262118,24813,0,1.00390625,-0.03125,0.013671875,-0.017578125,0.0,0.0,0.0
31263369,24814,0,1.0078125,-0.029296875,0.013671875,-0.015625,0.0,0.0,0.0
31264620,24815,0,1.001953125,-0.02734375,0.015625,-0.01171875,0.0,0.0,0.0
31265871,24816,0,1.005859375,-0.029296875,0.01953125,-0.009765625,0.0,0.0,0.0
31267123,24817,0,1.005859375,-0.029296875,0.017578125,-0.01171875,0.0,0.0,0.0
31268374,24818,0,1.00390625,-0.029296875,0.017578125,-0.01171875,0.0,0.0,0.0
31269624,24819,0,1.00390625,-0.029296875,0.01953125,-0.009765625,0.0,0.0,0.0
31270875,24820,0,1.00390625,-0.029296875,0.017578125,-0.01171875,0.0,0.0,0.0
31272125,24821,0,1.0,-0.033203125,0.01953125,-0.013671875,0.0,0.0,0.0
31273375,24822,0,0.998046875,-0.03125,0.015625,-0.015625,0.0,0.0,0.0
31274626,24823,0,0.99609375,-0.025390625,0.013671875,-0.01171875,0.0,0.0,0.0
31275877,24824,0,1.00390625,-0.025390625,0.017578125,-0.0078125,0.0,0.0,0.0
31277129,24825,0,1.0,-0.029296875,0.017578125,-0.01171875,0.0,0.0,0.0
31278380,24826,0,1.0078125,-0.03125,0.01953125,-0.01171875,0.0,0.0,0.0
31279630,24827,0,1.0,-0.03125,0.01171875,-0.01953125,0.0,0.0,0.0
31280881,24828,0,1.001953125,-0.0390625,0.01171875,-0.02734375,0.0,0.0,0.0
31282133,24829,0,1.00390625,-0.02734375,0.015625,-0.01171875,0.0,0.0,0.0
31283384,24830,0,1.0,-0.03125,0.017578125,-0.013671875,0.0,0.0,0.0
31284634,24831,0,1.0078125,-0.03125,0.017578125,-0.013671875,0.0,0.0,0.0
31285886,24832,0,1.00390625,-0.033203125,0.021484375,-0.01171875,0.0,0.0,0.0
31287136,24833,0,1.001953125,-0.03125,0.013671875,-0.017578125,0.0,0.0,0.0
31288386,24834,0,1.001953125,-0.029296875,0.01953125,-0.009765625,0.0,0.0,0.0
31289638,24835,0,0.998046875,-0.033203125,0.021484375,-0.01171875,0.0,0.0,0.0
31290888,24836,0,1.005859375,-0.03515625,0.015625,-0.01953125,0.0,0.0,0.0
31292139,24837,0,0.998046875,-0.03125,0.015625,-0.015625,0.0,0.0,0.0
31293391,24838,0,1.005859375,-0.03125,0.015625,-0.015625,0.0,0.0,0.0
31294641,24839,0,1.0078125,-0.03515625,0.013671875,-0.021484375,0.0,0.0,0.0
31295892,24840,0,0.998046875,-0.03125,0.013671875,-0.017578125,0.0,0.0,0.0
31297142,24841,0,1.00390625,-0.03125,0.01953125,-0.01171875,0.0,0.0,0.0
31298393,24842,0,1.0078125,-0.03515625,0.015625,-0.01953125,0.0,0.0,0.0
31299645,24843,0,1.0,-0.033203125,0.01953125,-0.013671875,0.0,0.0,0.0
31300895,24844,0,1.00390625,-0.03515625,0.015625,-0.01953125,0.0,0.0,0.0
31302147,24845,0,1.005859375,-0.037109375,0.009765625,-0.02734375,0.0,0.0,0.0
31303397,24846,0,1.00390625,-0.029296875,0.015625,-0.013671875,0.0,0.0,0.0
31304649,24847,0,0.998046875,-0.033203125,0.009765625,-0.0234375,0.0,0.0,0.0
31305899,24848,0,1.009765625,-0.03515625,0.021484375,-0.013671875,0.0,0.0,0.0
31307149,24849,0,1.013671875,-0.029296875,0.0234375,-0.005859375,0.0,0.0,0.0
31308399,24850,0,1.001953125,-0.029296875,0.0234375,-0.005859375,0.0,0.0,0.0
31309650,24851,0,1.005859375,-0.02734375,0.021484375,-0.005859375,0.0,0.0,0.0
31310902,24852,0,1.005859375,-0.03125,0.017578125,-0.013671875,0.0,0.0,0.0
31312153,24853,0,1.0,-0.03125,0.015625,-0.015625,0.0,0.0,0.0
31313404,24854,0,1.005859375,-0.029296875,0.01953125,-0.009765625,0.0,0.0,0.0
31314654,24855,0,1.00390625,-0.029296875,0.0234375,-0.005859375,0.0,0.0,0.0
31315904,24856,0,1.001953125,-0.03125,0.01953125,-0.01171875,0.0,0.0,0.0
31317155,24857,0,0.998046875,-0.02734375,0.021484375,-0.005859375,0.0,0.0,0.0
31318407,24858,0,1.00390625,-0.03125,0.021484375,-0.009765625,0.0,0.0,0.0
31319657,24859,0,1.005859375,-0.029296875,0.015625,-0.013671875,0.0,0.0,0.0
31320909,24860,0,1.0,-0.029296875,0.01953125,-0.009765625,0.0,0.0,0.0
31322159,24861,0,1.00390625,-0.025390625,0.021484375,-0.00390625,0.0,0.0,0.0
31323409,24862,0,1.00390625,-0.02734375,0.021484375,-0.005859375,0.0,0.0,0.0
31324661,24863,0,1.00390625,-0.029296875,0.01953125,-0.009765625,0.0,0.0,0.0
31325911,24864,0,1.009765625,-0.025390625,0.01953125,-0.005859375,0.0,0.0,0.0
31327161,24865,0,1.009765625,-0.02734375,0.025390625,-0.001953125,0.0,0.0,0.0
31328411,24866,0,1.001953125,-0.025390625,0.015625,-0.009765625,0.0,0.0,0.0
31329663,24867,0,1.00390625,-0.029296875,0.01953125,-0.009765625,0.0,0.0,0.0
31330913,24868,0,1.00390625,-0.03125,0.015625,-0.015625,0.0,0.0,0.0
31332164,24869,0,1.0,-0.025390625,0.021484375,-0.00390625,0.0,0.0,0.0
31333415,24870,0,1.005859375,-0.033203125,0.013671875,-0.01953125,0.0,0.0,0.0
31334666,24871,0,1.005859375,-0.03125,0.009765625,-0.021484375,0.0,0.0,0.0
31335916,24872,0,0.99609375,-0.029296875,0.021484375,-0.0078125,0.0,0.0,0.0
31337167,24873,0,1.01171875,-0.033203125,0.017578125,-0.015625,0.0,0.0,0.0
31338417,24874,0,1.001953125,-0.03125,0.017578125,-0.013671875,0.0,0.0,0.0
31339668,24875,0,1.0078125,-0.03125,0.01953125,-0.01171875,0.0,0.0,0.0
31340920,24876,0,1.0078125,-0.02734375,0.01953125,-0.0078125,0.0,0.0,0.0
31342171,24877,0,1.0078125,-0.03125,0.013671875,-0.017578125,0.0,0.0,0.0
31343421,24878,0,0.99609375,-0.033203125,0.021484375,-0.01171875,0.0,0.0,0.0
31344672,24879,0,1.00390625,-0.03125,0.015625,-0.015625,0.0,0.0,0.0
31345924,24880,0,1.00390625,-0.03125,0.017578125,-0.013671875,0.0,0.0,0.0
31347174,24881,0,0.998046875,-0.02734375,0.017578125,-0.009765625,0.0,0.0,0.0
31348425,24882,0,1.005859375,-0.03125,0.017578125,-0.013671875,0.0,0.0,0.0
31349677,24883,0,1.001953125,-0.03125,0.01953125,-0.01171875,0.0,0.0,0.0
31350927,24884,0,1.00390625,-0.03125,0.015625,-0.015625,0.0,0.0,0.0
31352177,24885,0,1.001953125,-0.03515625,0.01953125,-0.015625,0.0,0.0,0.0
31353429,24886,0,1.001953125,-0.033203125,0.015625,-0.017578125,0.0,0.0,0.0
31354679,24887,0,1.001953125,-0.033203125,0.017578125,-0.015625,0.0,0.0,0.0
31355931,24888,0,0.994140625,-0.03125,0.01953125,-0.01171875,0.0,0.0,0.0
31357181,24889,0,1.009765625,-0.03125,0.01953125,-0.01171875,0.0,0.0,0.0
31358431,24890,0,1.0,-0.033203125,0.013671875,-0.01953125,0.0,0.0,0.0
31359683,24891,0,1.00390625,-0.03125,0.01953125,-0.01171875,0.0,0.0,0.0
31360933,24892,0,1.0,-0.03125,0.01171875,-0.01953125,0.0,0.0,0.0
31362183,24893,0,1.001953125,-0.033203125,0.015625,-0.017578125,0.0,0.0,0.0
31363434,24894,0,1.001953125,-0.029296875,0.015625,-0.013671875,0.0,0.0,0.0
31364685,24895,0,0.998046875,-0.025390625,0.013671875,-0.01171875,0.0,0.0,0.0
31365936,24896,0,1.001953125,-0.02734375,0.01953125,-0.0078125,0.0,0.0,0.0
31367186,24897,0,1.0078125,-0.033203125,0.017578125,-0.015625,0.0,0.0,0.0
31368437,24898,0,1.009765625,-0.033203125,0.021484375,-0.01171875,0.0,0.0,0.0
31369687,24899,0,1.005859375,-0.02734375,0.013671875,-0.013671875,0.0,0.0,0.0
31370937,24900,0,1.001953125,-0.02734375,0.017578125,-0.009765625,0.0,0.0,0.0
31372188,24901,0,1.001953125,-0.025390625,0.017578125,-0.0078125,0.0,0.0,0.0
31373440,24902,0,0.998046875,-0.029296875,0.013671875,-0.015625,0.0,0.0,0.0
31374690,24903,0,1.005859375,-0.03125,0.0234375,-0.0078125,0.0,0.0,0.0
31375942,24904,0,0.998046875,-0.02734375,0.017578125,-0.009765625,0.0,0.0,0.0
31377193,24905,0,1.001953125,-0.033203125,0.013671875,-0.01953125,0.0,0.0,0.0
31378445,24906,0,1.0078125,-0.033203125,0.015625,-0.017578125,0.0,0.0,0.0
31379695,24907,0,1.00390625,-0.03515625,0.017578125,-0.017578125,0.0,0.0,0.0
31380947,24908,0,1.00390625,-0.029296875,0.0234375,-0.005859375,0.0,0.0,0.0
31382198,24909,0,0.994140625,-0.02734375,0.01953125,-0.0078125,0.0,0.0,0.0
31383450,24910,0,1.001953125,-0.0234375,0.01953125,-0.00390625,0.0,0.0,0.0
31384700,24911,0,1.01171875,-0.03125,0.0234375,-0.0078125,0.0,0.0,0.0
31385952,24912,0,1.0,-0.03515625,0.01953125,-0.015625,0.0,0.0,0.0
31387203,24913,0,1.001953125,-0.033203125,0.017578125,-0.015625,0.0,0.0,0.0
31388454,24914,0,1.005859375,-0.03125,0.013671875,-0.017578125,0.0,0.0,0.0
31389705,24915,0,1.0078125,-0.03515625,0.009765625,-0.025390625,0.0,0.0,0.0
31390957,24916,0,1.013671875,-0.033203125,0.01953125,-0.013671875,0.0,0.0,0.0
31392207,24917,0,1.001953125,-0.029296875,0.015625,-0.013671875,0.0,0.0,0.0
31393459,24918,0,1.0,-0.029296875,0.01953125,-0.009765625,0.0,0.0,0.0
31394709,24919,0,1.0,-0.029296875,0.021484375,-0.0078125,0.0,0.0,0.0
31395959,24920,0,0.998046875,-0.033203125,0.015625,-0.017578125,0.0,0.0,0.0
31397209,24921,0,1.009765625,-0.02734375,0.021484375,-0.005859375,0.0,0.0,0.0
31398459,24922,0,1.00390625,-0.033203125,0.015625,-0.017578125,0.0,0.0,0.0
31399711,24923,0,1.001953125,-0.033203125,0.01953125,-0.013671875,0.0,0.0,0.0
31400961,24924,0,1.005859375,-0.03515625,0.017578125,-0.017578125,0.0,0.0,0.0
31402213,24925,0,1.0078125,-0.03125,0.015625,-0.015625,0.0,0.0,0.0
31403464,24926,0,1.001953125,-0.03125,0.017578125,-0.013671875,0.0,0.0,0.0
31404715,24927,0,0.998046875,-0.02734375,0.01953125,-0.0078125,0.0,0.0,0.0
31405966,24928,0,1.00390625,-0.03125,0.017578125,-0.013671875,0.0,0.0,0.0
31407216,24929,0,1.0,-0.029296875,0.015625,-0.013671875,0.0,0.0,0.0
31408467,24930,0,1.01171875,-0.03125,0.01953125,-0.01171875,0.0,0.0,0.0
31409718,24931,0,1.009765625,-0.033203125,0.021484375,-0.01171875,0.0,0.0,0.0
31410968,24932,0,1.009765625,-0.029296875,0.025390625,-0.00390625,0.0,0.0,0.0
31412219,24933,0,1.0078125,-0.029296875,0.015625,-0.013671875,0.0,0.0,0.0
31413470,24934,0,0.998046875,-0.029296875,0.025390625,-0.00390625,0.0,0.0,0.0
31414721,24935,0,1.00390625,-0.0234375,0.021484375,-0.001953125,0.0,0.0,0.0
31415971,24936,0,1.001953125,-0.029296875,0.015625,-0.013671875,0.0,0.0,0.0
31417223,24937,0,1.005859375,-0.033203125,0.0234375,-0.009765625,0.0,0.0,0.0
31418473,24938,0,0.99609375,-0.029296875,0.015625,-0.013671875,0.0,0.0,0.0
31419723,24939,0,1.005859375,-0.029296875,0.015625,-0.013671875,0.0,0.0,0.0
31420975,24940,0,1.00390625,-0.03125,0.013671875,-0.017578125,0.0,0.0,0.0
31422226,24941,0,1.005859375,-0.037109375,0.017578125,-0.01953125,0.0,0.0,0.0
31423476,24942,0,1.001953125,-0.03125,0.015625,-0.015625,0.0,0.0,0.0
31424728,24943,0,1.005859375,-0.033203125,0.017578125,-0.015625,0.0,0.0,0.0
31425979,24944,0,1.009765625,-0.03125,0.013671875,-0.017578125,0.0,0.0,0.0
31427229,24945,0,1.00390625,-0.02734375,0.017578125,-0.009765625,0.0,0.0,0.0
31428481,24946,0,1.00390625,-0.03125,0.021484375,-0.009765625,0.0,0.0,0.0
31429731,24947,0,1.005859375,-0.029296875,0.017578125,-0.01171875,0.0,0.0,0.0
31430981,24948,0,1.001953125,-0.02734375,0.015625,-0.01171875,0.0,0.0,0.0
31432232,24949,0,1.005859375,-0.025390625,0.021484375,-0.00390625,0.0,0.0,0.0
31433483,24950,0,1.005859375,-0.029296875,0.017578125,-0.01171875,0.0,0.0,0.0
31434734,24951,0,1.005859375,-0.02734375,0.017578125,-0.009765625,0.0,0.0,0.0
31435986,24952,0,1.013671875,-0.03125,0.021484375,-0.009765625,0.0,0.0,0.0
31437236,24953,0,1.001953125,-0.03125,0.017578125,-0.013671875,0.0,0.0,0.0
31438486,24954,0,1.00390625,-0.03125,0.017578125,-0.013671875,0.0,0.0,0.0
31439737,24955,0,1.005859375,-0.033203125,0.0234375,-0.009765625,0.0,0.0,0.0
31440987,24956,0,1.00390625,-0.02734375,0.021484375,-0.005859375,0.0,0.0,0.0
31442238,24957,0,1.00390625,-0.03125,0.015625,-0.015625,0.0,0.0,0.0
31443489,24958,0,1.00390625,-0.02734375,0.01953125,-0.0078125,0.0,0.0,0.0
31444740,24959,0,1.01171875,-0.033203125,0.01953125,-0.013671875,0.0,0.0,0.0
31445991,24960,0,1.0,-0.029296875,0.021484375,-0.0078125,0.0,0.0,0.0
31447241,24961,0,1.001953125,-0.03125,0.01953125,-0.01171875,0.0,0.0,0.0
31448492,24962,0,1.0078125,-0.03125,0.009765625,-0.021484375,0.0,0.0,0.0
31449744,24963,0,1.009765625,-0.03125,0.021484375,-0.009765625,0.0,0.0,0.0
31450994,24964,0,1.00390625,-0.03125,0.013671875,-0.017578125,0.0,0.0,0.0
31452245,24965,0,1.001953125,-0.029296875,0.01953125,-0.009765625,0.0,0.0,0.0
31453496,24966,0,1.0,-0.02734375,0.015625,-0.01171875,0.0,0.0,0.0
31454747,24967,0,1.00390625,-0.02734375,0.017578125,-0.009765625,0.0,0.0,0.0
31455998,24968,0,1.0078125,-0.03125,0.01953125,-0.01171875,0.0,0.0,0.0
31457249,24969,0,1.00390625,-0.03125,0.01953125,-0.01171875,0.0,0.0,0.0
31458499,24970,0,1.00390625,-0.033203125,0.01953125,-0.013671875,0.0,0.0,0.0
31459751,24971,0,1.00390625,-0.03515625,0.015625,-0.01953125,0.0,0.0,0.0
31461002,24972,0,1.005859375,-0.03515625,0.015625,-0.01953125,0.0,0.0,0.0
31462253,24973,0,1.009765625,-0.037109375,0.009765625,-0.02734375,0.0,0.0,0.0
31463503,24974,0,0.998046875,-0.029296875,0.015625,-0.013671875,0.0,0.0,0.0
31464755,24975,0,0.99609375,-0.033203125,0.013671875,-0.01953125,0.0,0.0,0.0
31466005,24976,0,1.001953125,-0.033203125,0.0234375,-0.009765625,0.0,0.0,0.0
31467256,24977,0,1.0,-0.029296875,0.01953125,-0.009765625,0.0,0.0,0.0
31468506,24978,0,1.01171875,-0.029296875,0.021484375,-0.0078125,0.0,0.0,0.0
31469757,24979,0,1.001953125,-0.029296875,0.01953125,-0.009765625,0.0,0.0,0.0
31471008,24980,0,1.00390625,-0.029296875,0.01953125,-0.009765625,0.0,0.0,0.0
31472258,24981,0,1.005859375,-0.037109375,0.015625,-0.021484375,0.0,0.0,0.0
31473508,24982,0,0.998046875,-0.033203125,0.01953125,-0.013671875,0.0,0.0,0.0
31474759,24983,0,0.99609375,-0.029296875,0.021484375,-0.0078125,0.0,0.0,0.0
31476009,24984,0,1.005859375,-0.02734375,0.01953125,-0.0078125,0.0,0.0,0.0
31477259,24985,0,1.005859375,-0.029296875,0.01953125,-0.009765625,0.0,0.0,0.0
31478510,24986,0,1.0078125,-0.029296875,0.021484375,-0.0078125,0.0,0.0,0.0
31479762,24987,0,1.00390625,-0.029296875,0.015625,-0.013671875,0.0,0.0,0.0
31481012,24988,0,1.00390625,-0.02734375,0.021484375,-0.005859375,0.0,0.0,0.0
31482271,24989,0,0.998046875,-0.029296875,0.01953125,-0.009765625,0.0,0.0,0.0
31483521,24990,0,1.0,-0.029296875,0.021484375,-0.0078125,0.0,0.0,0.0
31484773,24991,0,1.001953125,-0.02734375,0.015625,-0.01171875,0.0,0.0,0.0
31486023,24992,0,0.99609375,-0.033203125,0.015625,-0.017578125,0.0,0.0,0.0
31487274,24993,0,1.00390625,-0.03125,0.01171875,-0.01953125,0.0,0.0,0.0
31488525,24994,0,1.00390625,-0.02734375,0.021484375,-0.005859375,0.0,0.0,0.0
31489776,24995,0,1.001953125,-0.03125,0.013671875,-0.017578125,0.0,0.0,0.0
31491026,24996,0,1.01171875,-0.025390625,0.01953125,-0.005859375,0.0,0.0,0.0
31492276,24997,0,1.0078125,-0.02734375,0.017578125,-0.009765625,0.0,0.0,0.0
31493527,24998,0,1.005859375,-0.033203125,0.01953125,-0.013671875,0.0,0.0,0.0
31494778,24999,0,1.00390625,-0.025390625,0.015625,-0.009765625,0.0,0.0,0.0
31496029,25000,0,1.005859375,-0.03125,0.005859375,-0.025390625,0.0,0.0,0.0
31497280,25001,0,1.0,-0.025390625,0.0078125,-0.017578125,0.0,0.0,0.0
31498531,25002,0,1.013671875,-0.03125,0.015625,-0.015625,0.0,0.0,0.0
31499783,25003,0,1.00390625,-0.03125,0.017578125,-0.013671875,0.0,0.0,0.0
31501034,25004,0,1.001953125,-0.03125,0.017578125,-0.013671875,0.0,0.0,0.0
31502286,25005,0,1.001953125,-0.025390625,0.015625,-0.009765625,0.0,0.0,0.0
31503537,25006,0,1.005859375,-0.03125,0.01953125,-0.01171875,0.0,0.0,0.0
31504789,25007,0,1.005859375,-0.02734375,0.01953125,-0.0078125,0.0,0.0,0.0
31506039,25008,0,1.00390625,-0.02734375,0.013671875,-0.013671875,0.0,0.0,0.0
31507289,25009,0,1.00390625,-0.02734375,0.017578125,-0.009765625,0.0,0.0,0.0
31508541,25010,0,1.005859375,-0.025390625,0.021484375,-0.00390625,0.0,0.0,0.0
31509792,25011,0,1.001953125,-0.02734375,0.025390625,-0.001953125,0.0,0.0,0.0
31511044,25012,0,1.00390625,-0.033203125,0.0234375,-0.009765625,0.0,0.0,0.0
31512294,25013,0,1.005859375,-0.029296875,0.01953125,-0.009765625,0.0,0.0,0.0
31513544,25014,0,1.001953125,-0.02734375,0.02734375,0.0,0.0,0.0,0.0
31514795,25015,0,1.001953125,-0.033203125,0.01953125,-0.013671875,0.0,0.0,0.0
31516045,25016,0,1.001953125,-0.029296875,0.017578125,-0.01171875,0.0,0.0,0.0
31517295,25017,0,1.001953125,-0.03125,0.01953125,-0.01171875,0.0,0.0,0.0
31518546,25018,0,1.0078125,-0.029296875,0.01953125,-0.009765625,0.0,0.0,0.0
31519797,25019,0,1.009765625,-0.03515625,0.015625,-0.01953125,0.0,0.0,0.0
31521048,25020,0,1.00390625,-0.033203125,0.021484375,-0.01171875,0.0,0.0,0.0
31522299,25021,0,1.0,-0.03125,0.017578125,-0.013671875,0.0,0.0,0.0
31523550,25022,0,0.994140625,-0.03125,0.021484375,-0.009765625,0.0,0.0,0.0
31524800,25023,0,1.001953125,-0.029296875,0.021484375,-0.0078125,0.0,0.0,0.0
31526052,25024,0,1.0078125,-0.029296875,0.013671875,-0.015625,0.0,0.0,0.0
31527303,25025,0,1.00390625,-0.029296875,0.017578125,-0.01171875,0.0,0.0,0.0
31528554,25026,0,1.005859375,-0.033203125,0.017578125,-0.015625,0.0,0.0,0.0
31529805,25027,0,1.005859375,-0.029296875,0.0234375,-0.005859375,0.0,0.0,0.0
31531057,25028,0,1.0,-0.03125,0.021484375,-0.009765625,0.0,0.0,0.0
31532308,25029,0,1.00390625,-0.02734375,0.01953125,-0.0078125,0.0,0.0,0.0
31533560,25030,0,1.001953125,-0.03125,0.017578125,-0.013671875,0.0,0.0,0.0
31534811,25031,0,1.0,-0.03125,0.01953125,-0.01171875,0.0,0.0,0.0
31536063,25032,0,1.005859375,-0.025390625,0.021484375,-0.00390625,0.0,0.0,0.0
31537314,25033,0,1.0,-0.02734375,0.017578125,-0.009765625,0.0,0.0,0.0
31538565,25034,0,1.0078125,-0.029296875,0.01953125,-0.009765625,0.0,0.0,0.0
31539816,25035,0,1.001953125,-0.03125,0.021484375,-0.009765625,0.0,0.0,0.0
31541066,25036,0,1.00390625,-0.021484375,0.021484375,0.0,0.0,0.0,0.0
31542318,25037,0,1.009765625,-0.0234375,0.01953125,-0.00390625,0.0,0.0,0.0
31543569,25038,0,1.0078125,-0.029296875,0.017578125,-0.01171875,0.0,0.0,0.0
31544819,25039,0,1.00390625,-0.03515625,0.015625,-0.01953125,0.0,0.0,0.0
31546070,25040,0,1.0078125,-0.029296875,0.01171875,-0.017578125,0.0,0.0,0.0
31547321,25041,0,1.00390625,-0.033203125,0.02734375,-0.005859375,0.0,0.0,0.0
31548572,25042,0,1.0,-0.033203125,0.021484375,-0.01171875,0.0,0.0,0.0
31549823,25043,0,1.00390625,-0.02734375,0.01953125,-0.0078125,0.0,0.0,0.0
31551074,25044,0,1.0078125,-0.03515625,0.021484375,-0.013671875,0.0,0.0,0.0
31552325,25045,0,1.009765625,-0.029296875,0.01953125,-0.009765625,0.0,0.0,0.0
31553575,25046,0,1.0078125,-0.02734375,0.01171875,-0.015625,0.0,0.0,0.0
31554825,25047,0,1.00390625,-0.033203125,0.01953125,-0.013671875,0.0,0.0,0.0
31556076,25048,0,1.005859375,-0.029296875,0.017578125,-0.01171875,0.0,0.0,0.0
31557326,25049,0,1.0078125,-0.03125,0.017578125,-0.013671875,0.0,0.0,0.0
31558577,25050,0,0.998046875,-0.03125,0.017578125,-0.013671875,0.0,0.0,0.0
31559828,25051,0,0.99609375,-0.03125,0.015625,-0.015625,0.0,0.0,0.0
31561078,25052,0,1.009765625,-0.03125,0.015625,-0.015625,0.0,0.0,0.0
31562329,25053,0,1.001953125,-0.02734375,0.01953125,-0.0078125,0.0,0.0,0.0
31563581,25054,0,1.00390625,-0.03125,0.01953125,-0.01171875,0.0,0.0,0.0
31564833,25055,0,1.00390625,-0.03125,0.01171875,-0.01953125,0.0,0.0,0.0
31566083,25056,0,1.01171875,-0.033203125,0.017578125,-0.015625,0.0,0.0,0.0
31567333,25057,0,1.0,-0.02734375,0.01953125,-0.0078125,0.0,0.0,0.0
31568584,25058,0,1.0,-0.029296875,0.021484375,-0.0078125,0.0,0.0,0.0
31569835,25059,0,1.01171875,-0.033203125,0.015625,-0.017578125,0.0,0.0,0.0
31571085,25060,0,1.009765625,-0.025390625,0.01953125,-0.005859375,0.0,0.0,0.0
31572336,25061,0,1.0078125,-0.0234375,0.015625,-0.0078125,0.0,0.0,0.0
31573587,25062,0,1.00390625,-0.025390625,0.015625,-0.009765625,0.0,0.0,0.0
31574838,25063,0,1.00390625,-0.025390625,0.021484375,-0.00390625,0.0,0.0,0.0
31576090,25064,0,0.998046875,-0.033203125,0.015625,-0.017578125,0.0,0.0,0.0
31577341,25065,0,1.001953125,-0.03125,0.01953125,-0.01171875,0.0,0.0,0.0
31578592,25066,0,1.001953125,-0.02734375,0.01953125,-0.0078125,0.0,0.0,0.0
31579844,25067,0,1.0078125,-0.029296875,0.017578125,-0.01171875,0.0,0.0,0.0
31581095,25068,0,1.001953125,-0.025390625,0.021484375,-0.00390625,0.0,0.0,0.0
31582346,25069,0,1.00390625,-0.03125,0.01953125,-0.01171875,0.0,0.0,0.0
31583597,25070,0,1.005859375,-0.029296875,0.013671875,-0.015625,0.0,0.0,0.0
31584849,25071,0,0.99609375,-0.033203125,0.015625,-0.017578125,0.0,0.0,0.0
31586099,25072,0,1.0,-0.029296875,0.021484375,-0.0078125,0.0,0.0,0.0
31587351,25073,0,0.998046875,-0.03125,0.015625,-0.015625,0.0,0.0,0.0
31588602,25074,0,0.998046875,-0.03125,0.015625,-0.015625,0.0,0.0,0.0
31589854,25075,0,1.00390625,-0.033203125,0.015625,-0.017578125,0.0,0.0,0.0
31591104,25076,0,1.00390625,-0.02734375,0.01953125,-0.0078125,0.0,0.0,0.0
31592354,25077,0,1.00390625,-0.033203125,0.01953125,-0.013671875,0.0,0.0,0.0
31593605,25078,0,1.001953125,-0.02734375,0.01953125,-0.0078125,0.0,0.0,0.0
31594855,25079,0,1.001953125,-0.029296875,0.01171875,-0.017578125,0.0,0.0,0.0
31596107,25080,0,1.00390625,-0.025390625,0.013671875,-0.01171875,0.0,0.0,0.0
31597358,25081,0,0.99609375,-0.03125,0.025390625,-0.005859375,0.0,0.0,0.0
31598609,25082,0,0.998046875,-0.025390625,0.021484375,-0.00390625,0.0,0.0,0.0
31599859,25083,0,0.998046875,-0.029296875,0.01953125,-0.009765625,0.0,0.0,0.0
31601111,25084,0,1.0078125,-0.025390625,0.017578125,-0.0078125,0.0,0.0,0.0
31602362,25085,0,0.994140625,-0.033203125,0.013671875,-0.01953125,0.0,0.0,0.0
31603613,25086,0,1.005859375,-0.025390625,0.009765625,-0.015625,0.0,0.0,0.0
31604865,25087,0,0.99609375,-0.03125,0.021484375,-0.009765625,0.0,0.0,0.0
31606115,25088,0,1.001953125,-0.029296875,0.017578125,-0.01171875,0.0,0.0,0.0
31607365,25089,0,0.998046875,-0.033203125,0.021484375,-0.01171875,0.0,0.0,0.0
31608617,25090,0,1.0078125,-0.029296875,0.017578125,-0.01171875,0.0,0.0,0.0
31609867,25091,0,1.001953125,-0.025390625,0.01171875,-0.013671875,0.0,0.0,0.0
31611118,25092,0,1.005859375,-0.033203125,0.01953125,-0.013671875,0.0,0.0,0.0
31612369,25093,0,1.001953125,-0.033203125,0.017578125,-0.015625,0.0,0.0,0.0
31613620,25094,0,1.0,-0.03125,0.021484375,-0.009765625,0.0,0.0,0.0
31614871,25095,0,1.0,-0.033203125,0.009765625,-0.0234375,0.0,0.0,0.0
31616123,25096,0,0.998046875,-0.033203125,0.025390625,-0.0078125,0.0,0.0,0.0
31617374,25097,0,1.00390625,-0.03125,0.021484375,-0.009765625,0.0,0.0,0.0
31618624,25098,0,1.001953125,-0.03125,0.017578125,-0.013671875,0.0,0.0,0.0
31619875,25099,0,1.00390625,-0.03125,0.015625,-0.015625,0.0,0.0,0.0
31621125,25100,0,1.001953125,-0.033203125,0.021484375,-0.01171875,0.0,0.0,0.0
31622375,25101,0,1.0,-0.033203125,0.013671875,-0.01953125,0.0,0.0,0.0
31623626,25102,0,1.009765625,-0.033203125,0.021484375,-0.01171875,0.0,0.0,0.0
31624877,25103,0,0.998046875,-0.037109375,0.02734375,-0.009765625,0.0,0.0,0.0
31626129,25104,0,1.01171875,-0.029296875,0.021484375,-0.0078125,0.0,0.0,0.0
31627380,25105,0,0.99609375,-0.03125,0.021484375,-0.009765625,0.0,0.0,0.0
31628630,25106,0,1.005859375,-0.03125,0.013671875,-0.017578125,0.0,0.0,0.0
31629881,25107,0,1.005859375,-0.029296875,0.015625,-0.013671875,0.0,0.0,0.0
31631133,25108,0,1.0078125,-0.03125,0.0234375,-0.0078125,0.0,0.0,0.0
31632384,25109,0,1.009765625,-0.033203125,0.015625,-0.017578125,0.0,0.0,0.0
31633634,25110,0,0.998046875,-0.03125,0.017578125,-0.013671875,0.0,0.0,0.0
31634886,25111,0,1.001953125,-0.03125,0.013671875,-0.017578125,0.0,0.0,0.0
31636136,25112,0,1.001953125,-0.033203125,0.01171875,-0.021484375,0.0,0.0,0.0
31637386,25113,0,1.001953125,-0.033203125,0.009765625,-0.0234375,0.0,0.0,0.0
31638638,25114,0,1.005859375,-0.033203125,0.0234375,-0.009765625,0.0,0.0,0.0
31639888,25115,0,1.00390625,-0.029296875,0.01953125,-0.009765625,0.0,0.0,0.0
31641139,25116,0,1.001953125,-0.029296875,0.01953125,-0.009765625,0.0,0.0,0.0
31642391,25117,0,1.0,-0.03125,0.013671875,-0.017578125,0.0,0.0,0.0
31643641,25118,0,1.001953125,-0.02734375,0.01953125,-0.0078125,0.0,0.0,0.0
31644892,25119,0,1.00390625,-0.03515625,0.021484375,-0.013671875,0.0,0.0,0.0
31646142,25120,0,1.001953125,-0.03515625,0.01953125,-0.015625,0.0,0.0,0.0
31647393,25121,0,0.99609375,-0.03515625,0.01953125,-0.015625,0.0,0.0,0.0
31648645,25122,0,1.001953125,-0.03515625,0.009765625,-0.025390625,0.0,0.0,0.0
31649895,25123,0,0.998046875,-0.03125,0.01171875,-0.01953125,0.0,0.0,0.0
31651147,25124,0,1.001953125,-0.029296875,0.0078125,-0.021484375,0.0,0.0,0.0
31652397,25125,0,0.998046875,-0.03515625,0.013671875,-0.021484375,0.0,0.0,0.0
31653649,25126,0,1.00390625,-0.03515625,0.009765625,-0.025390625,0.0,0.0,0.0
31654899,25127,0,1.0078125,-0.029296875,0.01953125,-0.009765625,0.0,0.0,0.0
31656149,25128,0,1.005859375,-0.029296875,0.021484375,-0.0078125,0.0,0.0,0.0
31657399,25129,0,1.005859375,-0.03125,0.009765625,-0.021484375,0.0,0.0,0.0
31658650,25130,0,1.005859375,-0.03125,0.0234375,-0.0078125,0.0,0.0,0.0
31659902,25131,0,1.005859375,-0.02734375,0.01953125,-0.0078125,0.0,0.0,0.0
31661153,25132,0,1.005859375,-0.03125,0.021484375,-0.009765625,0.0,0.0,0.0
31662404,25133,0,1.00390625,-0.03125,0.01953125,-0.01171875,0.0,0.0,0.0
31663654,25134,0,1.0078125,-0.025390625,0.021484375,-0.00390625,0.0,0.0,0.0
31664904,25135,0,1.005859375,-0.029296875,0.02734375,-0.001953125,0.0,0.0,0.0
31666155,25136,0,1.0,-0.033203125,0.017578125,-0.015625,0.0,0.0,0.0
31667407,25137,0,0.99609375,-0.025390625,0.017578125,-0.0078125,0.0,0.0,0.0
31668657,25138,0,1.005859375,-0.03515625,0.01953125,-0.015625,0.0,0.0,0.0
31669909,25139,0,1.001953125,-0.02734375,0.015625,-0.01171875,0.0,0.0,0.0
31671159,25140,0,1.0,-0.03125,0.01953125,-0.01171875,0.0,0.0,0.0
31672409,25141,0,1.00390625,-0.033203125,0.01953125,-0.013671875,0.0,0.0,0.0
31673661,25142,0,1.00390625,-0.03125,0.01171875,-0.01953125,0.0,0.0,8.454817279320282e+20
31676161,25144,0,1.005859375,-0.033203125,0.017578125,-0.015625,0.0,0.0,0.0
31677411,25145,0,1.009765625,-0.03125,0.015625,-0.015625,0.0,0.0,0.0
31678663,25146,0,1.0078125,-0.033203125,0.01953125,-0.013671875,0.0,0.0,0.0
31679913,25147,0,0.99609375,-0.03515625,0.015625,-0.01953125,0.0,0.0,0.0
31681164,25148,0,0.998046875,-0.029296875,0.01953125,-0.009765625,0.0,0.0,0.0
31682415,25149,0,0.998046875,-0.02734375,0.01953125,-0.0078125,0.0,0.0,0.0
31683666,25150,0,1.0078125,-0.033203125,0.01171875,-0.021484375,0.0,0.0,0.0
31684916,25151,0,0.998046875,-0.02734375,0.017578125,-0.009765625,0.0,0.0,0.0
31686167,25152,0,1.005859375,-0.03515625,0.01953125,-0.015625,0.0,0.0,0.0
31687417,25153,0,1.00390625,-0.029296875,0.01953125,-0.009765625,0.0,0.0,0.0
31688668,25154,0,1.0078125,-0.03515625,0.01953125,-0.015625,0.0,0.0,0.0
31689920,25155,0,1.001953125,-0.029296875,0.015625,-0.013671875,0.0,0.0,0.0
31691171,25156,0,1.001953125,-0.03515625,0.017578125,-0.017578125,0.0,0.0,0.0
31692421,25157,0,1.0,-0.029296875,0.013671875,-0.015625,0.0,0.0,0.0
31693672,25158,0,1.001953125,-0.03515625,0.01953125,-0.015625,0.0,0.0,0.0
31694924,25159,0,1.0,-0.029296875,0.021484375,-0.0078125,0.0,0.0,0.0
31696174,25160,0,0.998046875,-0.037109375,0.01171875,-0.025390625,0.0,0.0,0.0
31697425,25161,0,1.0,-0.044921875,0.01171875,-0.033203125,0.0,0.0,0.0
31698677,25162,0,1.0078125,-0.091796875,-0.013671875,-0.10546875,0.0,0.0,0.0
31699927,25163,0,0.978515625,-0.533203125,-0.265625,-0.798828125,0.0,0.0,0.0
31701177,25164,0,0.91796875,0.654296875,-0.109375,0.544921875,0.0,0.0,0.0
31702429,25165,0,1.126953125,0.744140625,0.73046875,1.474609375,0.0,0.0,0.0
31703679,25166,0,0.982421875,-0.115234375,-0.009765625,-0.125,0.0,0.0,0.0
31704931,25167,0,1.142578125,-0.044921875,-0.060546875,-0.10546875,0.0,0.0,0.0
31706181,25168,0,0.869140625,-0.017578125,0.1171875,0.099609375,0.0,0.0,0.0
31707431,25169,0,1.13671875,-0.0390625,-0.0390625,-0.078125,0.0,0.0,0.0
31708683,25170,0,0.853515625,-0.072265625,0.03515625,-0.037109375,0.0,0.0,0.0
31709933,25171,0,1.060546875,-0.03515625,-0.001953125,-0.037109375,0.0,0.0,0.0
31711183,25172,0,0.97265625,-0.044921875,0.00390625,-0.041015625,0.0,0.0,0.0
31712434,25173,0,1.03515625,-0.009765625,0.001953125,-0.0078125,0.0,0.0,0.0
31713685,25174,0,0.96875,-0.03515625,0.046875,0.01171875,0.0,0.0,0.0
31714936,25175,0,1.005859375,-0.046875,-0.015625,-0.0625,0.0,0.0,0.0
31716186,25176,0,1.017578125,-0.041015625,-0.00390625,-0.044921875,0.0,0.0,0.0
31717437,25177,0,0.974609375,-0.03125,0.021484375,-0.009765625,0.0,0.0,0.0
31718687,25178,0,1.041015625,-0.05078125,-0.009765625,-0.060546875,0.0,0.0,0.0
31719937,25179,0,0.98828125,-0.072265625,-0.01171875,-0.083984375,0.0,0.0,0.0
31721188,25180,0,0.998046875,-0.021484375,0.015625,-0.005859375,0.0,0.0,0.0
31722440,25181,0,0.9921875,-0.013671875,0.041015625,0.02734375,0.0,0.0,0.0
31723690,25182,0,1.04296875,-0.021484375,-0.00390625,-0.025390625,0.0,0.0,0.0
31724942,25183,0,0.96875,-0.05859375,0.025390625,-0.033203125,0.0,0.0,0.0
31726193,25184,0,1.01171875,0.017578125,0.048828125,0.06640625,0.0,0.0,0.0
31727445,25185,0,1.041015625,-0.017578125,0.037109375,0.01953125,0.0,0.0,0.0
31728695,25186,0,0.990234375,-0.048828125,0.0234375,-0.025390625,0.0,0.0,0.0
31729947,25187,0,0.98828125,-0.05859375,-0.015625,-0.07421875,0.0,0.0,0.0
31731198,25188,0,0.9765625,-0.138671875,-0.0546875,-0.193359375,0.0,0.0,0.0
31732450,25189,0,0.9921875,-0.068359375,-0.03515625,-0.103515625,0.0,0.0,0.0
31733700,25190,0,0.978515625,-0.0078125,0.05078125,0.04296875,0.0,0.0,0.0
31734952,25191,0,1.01953125,-0.01953125,0.021484375,0.001953125,0.0,0.0,0.0
31736203,25192,0,1.03515625,0.0390625,0.048828125,0.087890625,0.0,0.0,0.0
31737454,25193,0,0.986328125,-0.05078125,0.015625,-0.03515625,0.0,0.0,0.0
31738705,25194,0,1.01171875,-0.021484375,0.021484375,0.0,0.0,0.0,0.0
31739957,25195,0,0.984375,-0.041015625,0.013671875,-0.02734375,0.0,0.0,0.0
31741207,25196,0,0.990234375,-0.072265625,-0.025390625,-0.09765625,0.0,0.0,0.0
31742459,25197,0,1.033203125,0.0,0.01953125,0.01953125,0.0,0.0,0.0
31743709,25198,0,1.00390625,-0.037109375,0.03125,-0.005859375,0.0,0.0,0.0
31744959,25199,0,0.994140625,-0.015625,0.021484375,0.005859375,0.0,0.0,0.0
31746209,25200,0,1.025390625,-0.013671875,0.015625,0.001953125,0.0,0.0,0.0
31747459,25201,0,0.9921875,-0.060546875,0.015625,-0.044921875,0.0,0.0,0.0
31748711,25202,0,0.990234375,-0.1015625,-0.021484375,-0.123046875,0.0,0.0,0.0
31749961,25203,0,0.99609375,-0.0703125,-0.01953125,-0.08984375,0.0,0.0,0.0
31751213,25204,0,1.001953125,-0.0390625,-0.001953125,-0.041015625,0.0,0.0,0.0
31752464,25205,0,0.986328125,-0.1015625,-0.01171875,-0.11328125,0.0,0.0,0.0
31753715,25206,0,0.984375,-0.212890625,-0.08203125,-0.294921875,0.0,0.0,0.0
31754966,25207,0,0.966796875,-0.263671875,-0.12890625,-0.392578125,0.0,0.0,0.0
31756216,25208,0,0.974609375,-0.234375,-0.09375,-0.328125,0.0,0.0,0.0
31757467,25209,0,0.9375,-0.455078125,-0.181640625,-0.63671875,0.0,0.0,0.0
31758718,25210,0,0.89453125,-1.021484375,-0.447265625,-1.46875,0.0,0.0,0.0
31759968,25211,0,0.896484375,-1.408203125,-0.568359375,-1.9765625,0.0,0.0,0.0
31761219,25212,0,0.9609375,-0.955078125,-0.478515625,-1.43359375,0.0,0.0,0.0
31762470,25213,0,1.279296875,0.1328125,0.3984375,0.53125,0.0,0.0,0.0
31763721,25214,0,1.224609375,0.759765625,0.203125,0.962890625,0.0,0.0,0.0
31764971,25215,0,0.958984375,0.451171875,0.296875,0.748046875,0.0,0.0,0.0
31766223,25216,0,1.1015625,-0.634765625,-0.1484375,-0.783203125,0.0,0.0,0.0
31767473,25217,0,0.927734375,-4.0,-1.275390625,-5.275390625,0.0,0.0,0.0
31768723,25218,0,1.30859375,-4.0,-4.0,-8.0,0.0,0.0,0.0
31769975,25219,0,-1.306640625,-4.0,-0.001953125,-4.001953125,0.0,0.0,0.0
31771226,25220,0,2.701171875,-4.0,-3.791015625,-7.791015625,0.0,0.0,0.0
31772476,25221,0,0.5625,2.119140625,-3.443359375,-1.32421875,0.0,0.0,0.0
31773728,25222,0,1.298828125,3.998046875,-0.76171875,3.236328125,0.0,0.0,0.0
31774979,25223,0,1.78515625,3.998046875,1.486328125,5.484375,0.0,0.0,0.0
31776229,25224,0,1.744140625,3.998046875,3.998046875,7.99609375,0.0,0.0,0.0
31777481,25225,0,0.541015625,3.998046875,3.998046875,7.99609375,0.0,0.0,0.0
31778731,25226,0,1.859375,3.998046875,3.998046875,7.99609375,0.0,0.0,0.0
31779981,25227,0,0.98828125,3.998046875,3.48046875,7.478515625,0.0,0.0,0.0
31781232,25228,0,0.892578125,3.998046875,1.8828125,5.880859375,0.0,0.0,0.0
31782483,25229,0,1.044921875,0.396484375,-0.31640625,0.080078125,0.0,0.0,0.0
31783734,25230,0,1.265625,-3.703125,-2.123046875,-5.826171875,0.0,0.0,0.0
31784986,25231,0,1.015625,-4.0,-2.6796875,-6.6796875,0.0,0.0,0.0
31786236,25232,0,0.517578125,-4.0,-2.97265625,-6.97265625,0.0,0.0,0.0
31787486,25233,0,0.892578125,-4.0,-3.09765625,-7.09765625,0.0,0.0,0.0
31788737,25234,0,0.517578125,-4.0,-2.388671875,-6.388671875,0.0,0.0,0.0
31789987,25235,0,0.580078125,-4.0,-1.001953125,-5.001953125,0.0,0.0,0.0
31791238,25236,0,1.16015625,1.296875,-0.00390625,1.29296875,0.0,0.0,0.0
31792489,25237,0,1.287109375,3.306640625,0.953125,4.259765625,0.0,0.0,0.0
31793740,25238,0,1.28125,3.998046875,1.466796875,5.46484375,0.0,0.0,0.0
31794991,25239,0,1.328125,3.998046875,1.771484375,5.76953125,0.0,0.0,0.0
31796241,25240,0,0.830078125,3.998046875,1.830078125,5.828125,0.0,0.0,0.0
31797492,25241,0,0.814453125,3.009765625,1.3359375,4.345703125,0.0,0.0,0.0
31798744,25242,0,1.25,1.44921875,0.474609375,1.923828125,0.0,0.0,0.0
31799994,25243,0,0.943359375,-0.181640625,-0.01171875,-0.193359375,0.0,0.0,0.0
31801245,25244,0,1.017578125,-1.494140625,-0.5859375,-2.080078125,0.0,0.0,0.0
31802496,25245,0,1.203125,-2.4140625,-0.9921875,-3.40625,0.0,0.0,0.0
31803747,25246,0,0.91015625,-2.759765625,-1.03125,-3.791015625,0.0,0.0,0.0
31804998,25247,0,0.71875,-2.60546875,-0.87890625,-3.484375,0.0,0.0,0.0
31806249,25248,0,0.859375,-2.013671875,-0.732421875,-2.74609375,0.0,0.0,0.0
31807499,25249,0,0.998046875,-1.125,-0.4921875,-1.6171875,0.0,0.0,0.0
31808751,25250,0,0.8515625,-0.16796875,-0.064453125,-0.232421875,0.0,0.0,0.0
31810002,25251,0,1.197265625,0.689453125,0.14453125,0.833984375,0.0,0.0,0.0
31811253,25252,0,1.263671875,1.29296875,0.361328125,1.654296875,0.0,0.0,0.0
31812503,25253,0,0.998046875,1.61328125,0.630859375,2.244140625,0.0,0.0,0.0
31813755,25254,0,1.048828125,1.564453125,0.64453125,2.208984375,0.0,0.0,0.0
31815005,25255,0,1.029296875,1.255859375,0.541015625,1.796875,0.0,0.0,0.0
31816256,25256,0,0.875,0.767578125,0.408203125,1.17578125,0.0,0.0,0.0
31817506,25257,0,0.876953125,0.189453125,0.19140625,0.380859375,0.0,0.0,0.0
31818757,25258,0,1.111328125,-0.34765625,-0.15234375,-0.5,0.0,0.0,0.0
31820008,25259,0,1.078125,-0.75,-0.296875,-1.046875,0.0,0.0,0.0
31821258,25260,0,0.98828125,-0.955078125,-0.31640625,-1.271484375,0.0,0.0,0.0
31822508,25261,0,1.083984375,-0.955078125,-0.365234375,-1.3203125,0.0,0.0,0.0
31823759,25262,0,0.93359375,-0.787109375,-0.248046875,-1.03515625,0.0,0.0,0.0
31825009,25263,0,0.8046875,-0.478515625,-0.083984375,-0.5625,0.0,0.0,0.0
31826259,25264,0,0.951171875,-0.13671875,-0.02734375,-0.1640625,0.0,0.0,0.0
31827510,25265,0,1.052734375,0.177734375,0.052734375,0.23046875,0.0,0.0,0.0
31828762,25266,0,1.048828125,0.4296875,0.166015625,0.595703125,0.0,0.0,0.0
31830012,25267,0,1.111328125,0.5625,0.2109375,0.7734375,0.0,0.0,0.0
31831271,25268,0,1.14453125,0.58203125,0.197265625,0.779296875,0.0,0.0,0.0
31832521,25269,0,0.9609375,0.486328125,0.25390625,0.740234375,0.0,0.0,0.0
31833773,25270,0,0.896484375,0.3203125,0.216796875,0.537109375,0.0,0.0,0.0
31835023,25271,0,0.974609375,0.115234375,0.103515625,0.21875,0.0,0.0,0.0
31836274,25272,0,0.951171875,-0.08203125,0.0234375,-0.05859375,0.0,0.0,0.0
31837525,25273,0,1.0,-0.23046875,-0.0546875,-0.28515625,0.0,0.0,0.0
31838776,25274,0,1.109375,-0.33203125,-0.14453125,-0.4765625,0.0,0.0,0.0
31840026,25275,0,1.08203125,-0.353515625,-0.140625,-0.494140625,0.0,0.0,0.0
31841276,25276,0,0.96875,-0.283203125,-0.068359375,-0.3515625,0.0,0.0,0.0
31842527,25277,0,0.955078125,-0.1875,-0.02734375,-0.21484375,0.0,0.0,0.0
31843778,25278,0,0.962890625,-0.0625,0.083984375,0.021484375,0.0,0.0,0.0
31845029,25279,0,0.921875,0.154296875,0.0859375,0.240234375,0.0,0.0,0.0
31846280,25280,0,1.017578125,0.197265625,0.064453125,0.26171875,0.0,0.0,0.0
31847531,25281,0,1.05859375,0.201171875,0.078125,0.279296875,0.0,0.0,0.0
31848783,25282,0,1.037109375,0.150390625,0.083984375,0.234375,0.0,0.0,0.0
31850034,25283,0,1.009765625,0.083984375,0.05859375,0.142578125,0.0,0.0,0.0
31851286,25284,0,0.958984375,0.017578125,0.05859375,0.076171875,0.0,0.0,0.0
31852537,25285,0,0.921875,-0.05078125,0.05078125,0.0,0.0,0.0,0.0
31853789,25286,0,0.9921875,-0.1015625,-0.0078125,-0.109375,0.0,0.0,0.0
31855039,25287,0,1.029296875,-0.130859375,-0.04296875,-0.173828125,0.0,0.0,0.0
31856289,25288,0,1.029296875,-0.138671875,-0.05078125,-0.189453125,0.0,0.0,0.0
31857541,25289,0,1.0625,-0.130859375,-0.056640625,-0.1875,0.0,0.0,0.0
31858792,25290,0,1.041015625,-0.09375,-0.03125,-0.125,0.0,0.0,0.0
31860044,25291,0,0.966796875,-0.056640625,0.01953125,-0.037109375,0.0,0.0,0.0
31861294,25292,0,0.9453125,-0.01953125,0.044921875,0.025390625,0.0,0.0,0.0
31862544,25293,0,0.9765625,0.00390625,0.03515625,0.0390625,0.0,0.0,0.0
31863795,25294,0,0.986328125,0.02734375,0.03125,0.05859375,0.0,0.0,0.0
31865045,25295,0,1.0234375,0.03515625,0.01953125,0.0546875,0.0,0.0,0.0
31866295,25296,0,1.07421875,0.021484375,-0.001953125,0.01953125,0.0,0.0,0.0
31867546,25297,0,1.03515625,-0.005859375,0.013671875,0.0078125,0.0,0.0,0.0
31868797,25298,0,0.98828125,-0.03125,0.01953125,-0.01171875,0.0,0.0,0.0
31870048,25299,0,0.97265625,-0.05859375,0.015625,-0.04296875,0.0,0.0,0.0
31871299,25300,0,0.962890625,-0.076171875,0.017578125,-0.05859375,0.0,0.0,0.0
31872550,25301,0,0.970703125,-0.08203125,0.005859375,-0.076171875,0.0,0.0,0.0
31873800,25302,0,1.009765625,-0.08203125,-0.013671875,-0.095703125,0.0,0.0,0.0
31875052,25303,0,1.05078125,-0.068359375,-0.03125,-0.099609375,0.0,0.0,0.0
31876303,25304,0,1.03125,-0.046875,-0.017578125,-0.064453125,0.0,0.0,0.0
31877554,25305,0,1.0234375,-0.037109375,0.0,-0.037109375,0.0,0.0,0.0
31878805,25306,0,0.99609375,-0.02734375,0.013671875,-0.013671875,0.0,0.0,0.0
31880057,25307,0,0.962890625,-0.01171875,0.037109375,0.025390625,0.0,0.0,0.0
31881308,25308,0,0.970703125,-0.01171875,0.037109375,0.025390625,0.0,0.0,0.0
31882560,25309,0,1.01171875,-0.009765625,0.015625,0.005859375,0.0,0.0,0.0
31883811,25310,0,1.02734375,-0.005859375,0.00390625,-0.001953125,0.0,0.0,0.0
31885063,25311,0,1.03125,-0.0078125,0.01171875,0.00390625,0.0,0.0,0.0
31886314,25312,0,1.033203125,-0.015625,0.00390625,-0.01171875,0.0,0.0,0.0
31887565,25313,0,1.00390625,-0.0234375,0.009765625,-0.013671875,0.0,0.0,0.0
31888816,25314,0,0.96875,-0.029296875,0.02734375,-0.001953125,0.0,0.0,0.0
31890066,25315,0,0.98046875,-0.03515625,0.01953125,-0.015625,0.0,0.0,0.0
31891318,25316,0,0.994140625,-0.0390625,0.013671875,-0.025390625,0.0,0.0,0.0
31892569,25317,0,1.001953125,-0.02734375,0.009765625,-0.017578125,0.0,0.0,0.0
31893819,25318,0,1.029296875,-0.0234375,0.01171875,-0.01171875,0.0,0.0,0.0
31895070,25319,0,1.029296875,-0.015625,0.0078125,-0.0078125,0.0,0.0,0.0
31896321,25320,0,1.009765625,-0.0078125,0.037109375,0.029296875,0.0,0.0,0.0
31897572,25321,0,0.986328125,-0.001953125,0.037109375,0.03515625,0.0,0.0,0.0
31898823,25322,0,0.994140625,-0.001953125,0.03125,0.029296875,0.0,0.0,0.0
31900074,25323,0,0.998046875,-0.00390625,0.03125,0.02734375,0.0,0.0,0.0
31901325,25324,0,1.025390625,-0.005859375,0.0234375,0.017578125,0.0,0.0,0.0
31902575,25325,0,1.02734375,-0.009765625,0.015625,0.005859375,0.0,0.0,0.0
31903825,25326,0,1.01171875,-0.013671875,0.01953125,0.005859375,0.0,0.0,0.0
31905076,25327,0,0.998046875,-0.01171875,0.025390625,0.013671875,0.0,0.0,0.0
31906326,25328,0,0.9921875,-0.015625,0.025390625,0.009765625,0.0,0.0,0.0
31907577,25329,0,0.984375,-0.01953125,0.033203125,0.013671875,0.0,0.0,0.0
31908828,25330,0,1.0,-0.021484375,0.025390625,0.00390625,0.0,0.0,0.0
31910078,25331,0,1.017578125,-0.02734375,0.01953125,-0.0078125,0.0,0.0,0.0
31911329,25332,0,1.013671875,-0.01953125,0.01953125,0.0,0.0,0.0,0.0
31912581,25333,0,1.009765625,-0.01953125,0.01953125,0.0,0.0,0.0,0.0
31913833,25334,0,0.998046875,-0.017578125,0.01953125,0.001953125,0.0,0.0,0.0
31915083,25335,0,0.9921875,-0.01953125,0.0234375,0.00390625,0.0,0.0,0.0
31916333,25336,0,0.986328125,-0.01953125,0.03515625,0.015625,0.0,0.0,0.0
31917584,25337,0,0.9921875,-0.025390625,0.01953125,-0.005859375,0.0,0.0,0.0
31918835,25338,0,1.00390625,-0.02734375,0.017578125,-0.009765625,0.0,0.0,0.0
31920085,25339,0,1.013671875,-0.03515625,0.021484375,-0.013671875,0.0,0.0,0.0
31921336,25340,0,1.021484375,-0.033203125,0.009765625,-0.0234375,0.0,0.0,0.0
31922587,25341,0,1.021484375,-0.037109375,0.01171875,-0.025390625,0.0,0.0,0.0
31923838,25342,0,0.99609375,-0.037109375,0.017578125,-0.01953125,0.0,0.0,0.0
31925090,25343,0,0.98828125,-0.037109375,0.021484375,-0.015625,0.0,0.0,0.0
31926341,25344,0,1.0078125,-0.0390625,0.01171875,-0.02734375,0.0,0.0,0.0
31927592,25345,0,1.00390625,-0.044921875,0.009765625,-0.03515625,0.0,0.0,0.0
31928844,25346,0,1.01171875,-0.037109375,0.0078125,-0.029296875,0.0,0.0,0.0
31930095,25347,0,1.025390625,-0.0390625,0.001953125,-0.037109375,0.0,0.0,0.0
31931346,25348,0,1.013671875,-0.0390625,0.00390625,-0.03515625,0.0,0.0,0.0
31932597,25349,0,0.998046875,-0.0390625,0.009765625,-0.029296875,0.0,0.0,0.0
31933849,25350,0,0.990234375,-0.04296875,0.013671875,-0.029296875,0.0,0.0,0.0
31935099,25351,0,0.990234375,-0.041015625,0.015625,-0.025390625,0.0,0.0,0.0
31936351,25352,0,0.994140625,-0.037109375,0.00390625,-0.033203125,0.0,0.0,0.0
31937602,25353,0,1.005859375,-0.037109375,-0.001953125,-0.0390625,0.0,0.0,0.0
31938854,25354,0,1.01171875,-0.033203125,-0.001953125,-0.03515625,0.0,0.0,0.0
31940104,25355,0,1.01171875,-0.03515625,0.0,-0.03515625,0.0,0.0,0.0
31941354,25356,0,1.005859375,-0.0390625,0.00390625,-0.03515625,0.0,0.0,0.0
31942605,25357,0,0.99609375,-0.037109375,0.015625,-0.021484375,0.0,0.0,0.0
31943855,25358,0,0.984375,-0.033203125,0.01171875,-0.021484375,0.0,0.0,0.0
31945107,25359,0,0.998046875,-0.037109375,0.0078125,-0.029296875,0.0,0.0,0.0
31946358,25360,0,1.001953125,-0.03515625,-0.001953125,-0.037109375,0.0,0.0,0.0
31947609,25361,0,1.01171875,-0.03125,-0.005859375,-0.037109375,0.0,0.0,0.0
31948859,25362,0,1.01171875,-0.02734375,-0.00390625,-0.03125,0.0,0.0,0.0
31950111,25363,0,1.01171875,-0.02734375,0.001953125,-0.025390625,0.0,0.0,0.0
31951362,25364,0,1.01171875,-0.025390625,0.01171875,-0.013671875,0.0,0.0,0.0
31952613,25365,0,0.994140625,-0.017578125,0.013671875,-0.00390625,0.0,0.0,0.0
31953865,25366,0,0.99609375,-0.0234375,0.0078125,-0.015625,0.0,0.0,0.0
31955115,25367,0,1.001953125,-0.015625,0.009765625,-0.005859375,0.0,0.0,0.0
31956365,25368,0,1.013671875,-0.01171875,0.01171875,0.0,0.0,0.0,0.0
31957617,25369,0,1.013671875,-0.015625,0.0078125,-0.0078125,0.0,0.0,0.0
31958867,25370,0,1.0078125,-0.01953125,0.013671875,-0.005859375,0.0,0.0,0.0
31960118,25371,0,1.001953125,-0.015625,0.01953125,0.00390625,0.0,0.0,0.0
31961369,25372,0,1.0,-0.01171875,0.0234375,0.01171875,0.0,0.0,0.0
31962620,25373,0,0.99609375,-0.009765625,0.021484375,0.01171875,0.0,0.0,0.0
31963871,25374,0,0.998046875,-0.015625,0.017578125,0.001953125,0.0,0.0,0.0
31965123,25375,0,1.01171875,-0.013671875,0.015625,0.001953125,0.0,0.0,0.0
31966374,25376,0,1.025390625,-0.009765625,0.01953125,0.009765625,0.0,0.0,0.0
31967624,25377,0,1.01171875,-0.01171875,0.021484375,0.009765625,0.0,0.0,0.0
31968875,25378,0,1.005859375,-0.01171875,0.01953125,0.0078125,0.0,0.0,0.0
31970125,25379,0,1.001953125,-0.01171875,0.01953125,0.0078125,0.0,0.0,0.0
31971375,25380,0,0.990234375,-0.009765625,0.02734375,0.017578125,0.0,0.0,0.0
31972626,25381,0,0.994140625,-0.009765625,0.021484375,0.01171875,0.0,0.0,0.0
31973877,25382,0,1.017578125,-0.017578125,0.0234375,0.005859375,0.0,0.0,0.0
31975129,25383,0,1.009765625,-0.021484375,0.021484375,0.0,0.0,0.0,0.0
31976380,25384,0,1.017578125,-0.017578125,0.021484375,0.00390625,0.0,0.0,0.0
31977630,25385,0,1.0078125,-0.015625,0.025390625,0.009765625,0.0,0.0,0.0
31978881,25386,0,0.9921875,-0.017578125,0.033203125,0.015625,0.0,0.0,0.0
31980133,25387,0,0.990234375,-0.025390625,0.03515625,0.009765625,0.0,0.0,0.0
31981384,25388,0,0.994140625,-0.021484375,0.0234375,0.001953125,0.0,0.0,0.0
31982634,25389,0,1.005859375,-0.01953125,0.025390625,0.005859375,0.0,0.0,0.0
31983886,25390,0,1.009765625,-0.01953125,0.021484375,0.001953125,0.0,0.0,0.0
31985136,25391,0,1.009765625,-0.025390625,0.015625,-0.009765625,0.0,0.0,0.0
31986386,25392,0,1.0078125,-0.021484375,0.01953125,-0.001953125,0.0,0.0,0.0
31987638,25393,0,0.998046875,-0.025390625,0.025390625,0.0,0.0,0.0,0.0
31988888,25394,0,0.994140625,-0.0234375,0.025390625,0.001953125,0.0,0.0,0.0
31990139,25395,0,0.998046875,-0.029296875,0.017578125,-0.01171875,0.0,0.0,0.0
31991391,25396,0,0.998046875,-0.03125,0.021484375,-0.009765625,0.0,0.0,0.0
31992641,25397,0,1.005859375,-0.033203125,0.017578125,-0.015625,0.0,0.0,0.0
31993892,25398,0,1.0078125,-0.033203125,0.01171875,-0.021484375,0.0,0.0,0.0
31995142,25399,0,1.009765625,-0.0390625,0.01953125,-0.01953125,0.0,0.0,0.0
31996393,25400,0,1.015625,-0.037109375,0.01953125,-0.017578125,0.0,0.0,0.0
31997645,25401,0,1.00390625,-0.037109375,0.021484375,-0.015625,0.0,0.0,0.0
31998895,25402,0,1.0,-0.037109375,0.0234375,-0.013671875,0.0,0.0,0.0
32000147,25403,0,0.990234375,-0.03515625,0.021484375,-0.013671875,0.0,0.0,0.0
32001397,25404,0,1.0,-0.0390625,0.0078125,-0.03125,0.0,0.0,0.0
32002649,25405,0,0.998046875,-0.04296875,0.005859375,-0.037109375,0.0,0.0,0.0
32003899,25406,0,1.0078125,-0.0390625,0.01171875,-0.02734375,0.0,0.0,0.0
32005149,25407,0,1.001953125,-0.0390625,0.017578125,-0.021484375,0.0,0.0,0.0
32006399,25408,0,0.99609375,-0.033203125,0.017578125,-0.015625,0.0,0.0,0.0
32007650,25409,0,0.99609375,-0.03125,0.009765625,-0.021484375,0.0,0.0,0.0
32008902,25410,0,1.005859375,-0.025390625,0.009765625,-0.015625,0.0,0.0,0.0
32010153,25411,0,1.005859375,-0.029296875,0.017578125,-0.01171875,0.0,0.0,0.0
32011404,25412,0,1.013671875,-0.02734375,0.01171875,-0.015625,0.0,0.0,0.0
32012654,25413,0,1.009765625,-0.025390625,0.0078125,-0.017578125,0.0,0.0,0.0
32013904,25414,0,0.998046875,-0.02734375,0.01171875,-0.015625,0.0,0.0,0.0
32015155,25415,0,0.998046875,-0.02734375,0.009765625,-0.017578125,0.0,0.0,0.0
32016407,25416,0,0.994140625,-0.02734375,0.015625,-0.01171875,0.0,0.0,0.0
32017657,25417,0,0.99609375,-0.025390625,0.0078125,-0.017578125,0.0,0.0,0.0
32018909,25418,0,1.00390625,-0.02734375,0.01171875,-0.015625,0.0,0.0,0.0
32020159,25419,0,1.009765625,-0.02734375,0.0078125,-0.01953125,0.0,0.0,0.0
32021409,25420,0,1.009765625,-0.02734375,0.01171875,-0.015625,0.0,0.0,0.0
32022661,25421,0,1.01171875,-0.025390625,0.013671875,-0.01171875,0.0,0.0,0.0
32023911,25422,0,1.00390625,-0.0234375,0.00390625,-0.01953125,0.0,0.0,0.0
32025161,25423,0,1.0,-0.021484375,0.01171875,-0.009765625,0.0,0.0,0.0
32026411,25424,0,0.9921875,-0.021484375,0.01953125,-0.001953125,0.0,0.0,0.0
32027663,25425,0,0.994140625,-0.01953125,0.017578125,-0.001953125,0.0,0.0,0.0
32028913,25426,0,0.998046875,-0.017578125,0.009765625,-0.0078125,0.0,0.0,0.0
32030164,25427,0,1.001953125,-0.0234375,0.01171875,-0.01171875,0.0,0.0,0.0
32031415,25428,0,1.015625,-0.017578125,0.009765625,-0.0078125,0.0,0.0,0.0
32032666,25429,0,1.00390625,-0.015625,0.013671875,-0.001953125,0.0,0.0,0.0
32033916,25430,0,1.0078125,-0.017578125,0.01171875,-0.005859375,0.0,0.0,0.0
32035167,25431,0,1.001953125,-0.015625,0.01171875,-0.00390625,0.0,0.0,0.0
32036417,25432,0,0.994140625,-0.017578125,0.01953125,0.001953125,0.0,0.0,0.0
32037668,25433,0,1.005859375,-0.015625,0.013671875,-0.001953125,0.0,0.0,0.0
32038920,25434,0,1.009765625,-0.015625,0.01171875,-0.00390625,0.0,0.0,0.0
32040171,25435,0,1.0078125,-0.017578125,0.009765625,-0.0078125,0.0,0.0,0.0
32041421,25436,0,1.015625,-0.015625,0.005859375,-0.009765625,0.0,0.0,0.0
32042672,25437,0,1.00390625,-0.015625,0.021484375,0.005859375,0.0,0.0,0.0
32043924,25438,0,0.99609375,-0.021484375,0.01953125,-0.001953125,0.0,0.0,0.0
32045174,25439,0,1.001953125,-0.01953125,0.021484375,0.001953125,0.0,0.0,0.0
32046425,25440,0,0.99609375,-0.01953125,0.01953125,0.0,0.0,0.0,0.0
32047677,25441,0,0.998046875,-0.021484375,0.017578125,-0.00390625,0.0,0.0,0.0
32048927,25442,0,1.013671875,-0.01953125,0.013671875,-0.005859375,0.0,0.0,0.0
32050177,25443,0,1.009765625,-0.021484375,0.01953125,-0.001953125,0.0,0.0,0.0
32051429,25444,0,1.009765625,-0.013671875,0.01953125,0.005859375,0.0,0.0,0.0
32052679,25445,0,1.0078125,-0.0234375,0.0234375,0.0,0.0,0.0,0.0
32053931,25446,0,0.9921875,-0.029296875,0.0234375,-0.005859375,0.0,0.0,0.0
32055181,25447,0,0.99609375,-0.03515625,0.01171875,-0.0234375,0.0,0.0,0.0
32056431,25448,0,0.99609375,-0.033203125,0.015625,-0.017578125,0.0,0.0,0.0
32057683,25449,0,0.998046875,-0.02734375,0.015625,-0.01171875,0.0,0.0,0.0
32058933,25450,0,1.00390625,-0.025390625,0.0078125,-0.017578125,0.0,0.0,0.0
32060183,25451,0,1.009765625,-0.025390625,0.009765625,-0.015625,0.0,0.0,0.0
32061434,25452,0,1.001953125,-0.03125,0.015625,-0.015625,0.0,0.0,0.0
32062685,25453,0,0.99609375,-0.03125,0.017578125,-0.013671875,0.0,0.0,0.0
32063936,25454,0,0.998046875,-0.033203125,0.015625,-0.017578125,0.0,0.0,0.0
32065186,25455,0,1.0,-0.03515625,0.013671875,-0.021484375,0.0,0.0,0.0
32066437,25456,0,1.0078125,-0.03125,0.017578125,-0.013671875,0.0,0.0,0.0
32067687,25457,0,1.009765625,-0.03515625,0.013671875,-0.021484375,0.0,0.0,0.0
32068937,25458,0,1.0078125,-0.037109375,0.017578125,-0.01953125,0.0,0.0,0.0
32070188,25459,0,1.001953125,-0.033203125,0.015625,-0.017578125,0.0,0.0,0.0
32071440,25460,0,1.001953125,-0.03515625,0.01171875,-0.0234375,0.0,0.0,0.0
32072690,25461,0,0.998046875,-0.037109375,0.01171875,-0.025390625,0.0,0.0,0.0
32073942,25462,0,1.0,-0.03515625,0.017578125,-0.017578125,0.0,0.0,0.0
32075193,25463,0,1.00390625,-0.033203125,0.01171875,-0.021484375,0.0,0.0,0.0
32076445,25464,0,1.005859375,-0.033203125,0.017578125,-0.015625,0.0,0.0,0.0
32077695,25465,0,1.005859375,-0.03515625,0.01171875,-0.0234375,0.0,0.0,0.0
32078947,25466,0,1.0078125,-0.03125,0.01953125,-0.01171875,0.0,0.0,0.0
32080198,25467,0,0.998046875,-0.033203125,0.013671875,-0.01953125,0.0,0.0,0.0
32081450,25468,0,0.998046875,-0.02734375,0.015625,-0.01171875,0.0,0.0,0.0
32082700,25469,0,0.99609375,-0.029296875,0.01171875,-0.017578125,0.0,0.0,0.0
32083952,25470,0,1.005859375,-0.037109375,0.017578125,-0.01953125,0.0,0.0,0.0
32085203,25471,0,1.00390625,-0.02734375,0.01953125,-0.0078125,0.0,0.0,0.0
32086454,25472,0,1.0,-0.03125,0.01171875,-0.01953125,0.0,0.0,0.0
32087705,25473,0,1.0078125,-0.03125,0.01171875,-0.01953125,0.0,0.0,0.0
32088957,25474,0,1.0078125,-0.03125,0.017578125,-0.013671875,0.0,0.0,0.0
32090207,25475,0,1.00390625,-0.025390625,0.017578125,-0.0078125,0.0,0.0,0.0
32091459,25476,0,1.0,-0.025390625,0.01953125,-0.005859375,0.0,0.0,0.0
32092709,25477,0,1.005859375,-0.025390625,0.015625,-0.009765625,0.0,0.0,0.0
32093959,25478,0,1.0,-0.021484375,0.013671875,-0.0078125,0.0,0.0,0.0
32095209,25479,0,1.009765625,-0.0234375,0.015625,-0.0078125,0.0,0.0,0.0
32096459,25480,0,1.00390625,-0.0234375,0.021484375,-0.001953125,0.0,0.0,0.0
32097711,25481,0,1.005859375,-0.0234375,0.01953125,-0.00390625,0.0,0.0,0.0
32098961,25482,0,1.001953125,-0.01953125,0.01953125,0.0,0.0,0.0,0.0
32100213,25483,0,1.005859375,-0.021484375,0.015625,-0.005859375,0.0,0.0,0.0
32101464,25484,0,0.998046875,-0.021484375,0.017578125,-0.00390625,0.0,0.0,0.0
32102715,25485,0,0.998046875,-0.021484375,0.021484375,0.0,0.0,0.0,0.0
32103966,25486,0,1.005859375,-0.021484375,0.015625,-0.005859375,0.0,0.0,0.0
32105216,25487,0,1.001953125,-0.0234375,0.009765625,-0.013671875,0.0,0.0,0.0
32106467,25488,0,1.0,-0.017578125,0.0234375,0.005859375,0.0,0.0,0.0
32107718,25489,0,1.005859375,-0.017578125,0.0234375,0.005859375,0.0,0.0,0.0
32108968,25490,0,1.00390625,-0.01953125,0.021484375,0.001953125,0.0,0.0,0.0
32110219,25491,0,1.00390625,-0.01171875,0.01953125,0.0078125,0.0,0.0,0.0
32111470,25492,0,1.001953125,-0.015625,0.021484375,0.005859375,0.0,0.0,0.0
32112721,25493,0,0.998046875,-0.015625,0.01171875,-0.00390625,0.0,0.0,0.0
32113971,25494,0,0.998046875,-0.01953125,0.01171875,-0.0078125,0.0,0.0,0.0
32115223,25495,0,1.00390625,-0.01953125,0.013671875,-0.005859375,0.0,0.0,0.0
32116473,25496,0,1.001953125,-0.015625,0.013671875,-0.001953125,0.0,0.0,0.0
32117723,25497,0,1.0,-0.021484375,0.015625,-0.005859375,0.0,0.0,0.0
32118975,25498,0,1.001953125,-0.01953125,0.01953125,0.0,0.0,0.0,0.0
32120226,25499,0,1.005859375,-0.0234375,0.01171875,-0.01171875,0.0,0.0,0.0
32121476,25500,0,1.0,-0.0234375,0.015625,-0.0078125,0.0,0.0,0.0
32122728,25501,0,1.0078125,-0.0234375,0.013671875,-0.009765625,0.0,0.0,0.0
32123979,25502,0,1.0078125,-0.0234375,0.015625,-0.0078125,0.0,0.0,0.0
32125229,25503,0,1.005859375,-0.025390625,0.01171875,-0.013671875,0.0,0.0,0.0
32126481,25504,0,1.0078125,-0.0234375,0.017578125,-0.005859375,0.0,0.0,0.0
32127731,25505,0,1.0078125,-0.029296875,0.015625,-0.013671875,0.0,0.0,0.0
32128981,25506,0,1.005859375,-0.02734375,0.01953125,-0.0078125,0.0,0.0,0.0
32130232,25507,0,1.00390625,-0.029296875,0.01171875,-0.017578125,0.0,0.0,0.0
32131483,25508,0,1.00390625,-0.0234375,0.01171875,-0.01171875,0.0,0.0,0.0
32132734,25509,0,0.998046875,-0.025390625,0.009765625,-0.015625,0.0,0.0,0.0
32133986,25510,0,1.0078125,-0.029296875,0.013671875,-0.015625,0.0,0.0,0.0
32135236,25511,0,1.0,-0.0234375,0.0078125,-0.015625,0.0,0.0,0.0
32136486,25512,0,1.0,-0.029296875,0.0,-0.029296875,0.0,0.0,0.0
32137737,25513,0,1.001953125,-0.02734375,0.00390625,-0.0234375,0.0,0.0,0.0
32138987,25514,0,1.005859375,-0.029296875,0.01953125,-0.009765625,0.0,0.0,0.0
32140238,25515,0,1.0078125,-0.025390625,0.0078125,-0.017578125,0.0,0.0,0.0
32141489,25516,0,1.001953125,-0.029296875,0.013671875,-0.015625,0.0,0.0,0.0
32142740,25517,0,1.013671875,-0.02734375,0.017578125,-0.009765625,0.0,0.0,0.0
32143991,25518,0,1.009765625,-0.033203125,0.013671875,-0.01953125,0.0,0.0,0.0
32145241,25519,0,1.001953125,-0.033203125,0.015625,-0.017578125,0.0,0.0,0.0
32146492,25520,0,1.0,-0.033203125,0.021484375,-0.01171875,0.0,0.0,0.0
32147744,25521,0,0.99609375,-0.033203125,0.01171875,-0.021484375,0.0,0.0,0.0
32148994,25522,0,1.005859375,-0.03125,0.01953125,-0.01171875,0.0,0.0,0.0
32150245,25523,0,1.001953125,-0.033203125,0.013671875,-0.01953125,0.0,0.0,0.0
32151496,25524,0,1.0,-0.033203125,0.015625,-0.017578125,0.0,0.0,0.0
32152747,25525,0,0.99609375,-0.033203125,0.01171875,-0.021484375,0.0,0.0,0.0
32153998,25526,0,0.998046875,-0.03125,0.013671875,-0.017578125,0.0,0.0,0.0
32155249,25527,0,1.001953125,-0.025390625,0.01953125,-0.005859375,0.0,0.0,0.0
32156499,25528,0,0.998046875,-0.03125,0.017578125,-0.013671875,0.0,0.0,0.0
32157751,25529,0,0.99609375,-0.029296875,0.015625,-0.013671875,0.0,0.0,0.0
32159002,25530,0,1.00390625,-0.025390625,0.021484375,-0.00390625,0.0,0.0,0.0
32160253,25531,0,1.005859375,-0.02734375,0.015625,-0.01171875,0.0,0.0,0.0
32161503,25532,0,1.001953125,-0.02734375,0.021484375,-0.005859375,0.0,0.0,0.0
32162755,25533,0,1.015625,-0.03125,0.013671875,-0.017578125,0.0,0.0,0.0
32164005,25534,0,1.0,-0.033203125,0.013671875,-0.01953125,0.0,0.0,0.0
32165256,25535,0,1.0078125,-0.029296875,0.0234375,-0.005859375,0.0,0.0,0.0
32166506,25536,0,1.005859375,-0.025390625,0.01953125,-0.005859375,0.0,0.0,0.0
32167757,25537,0,1.001953125,-0.025390625,0.021484375,-0.00390625,0.0,0.0,0.0
32169008,25538,0,1.009765625,-0.02734375,0.01953125,-0.0078125,0.0,0.0,0.0
32170258,25539,0,1.00390625,-0.0234375,0.015625,-0.0078125,0.0,0.0,0.0
32171508,25540,0,1.00390625,-0.01953125,0.017578125,-0.001953125,0.0,0.0,0.0
32172759,25541,0,0.998046875,-0.0234375,0.015625,-0.0078125,0.0,0.0,0.0
32174009,25542,0,1.00390625,-0.021484375,0.0234375,0.001953125,0.0,0.0,0.0
32175259,25543,0,1.00390625,-0.025390625,0.017578125,-0.0078125,0.0,0.0,0.0
32176510,25544,0,1.005859375,-0.025390625,0.01953125,-0.005859375,0.0,0.0,0.0
32177762,25545,0,1.0078125,-0.0234375,0.017578125,-0.005859375,0.0,0.0,0.0
32179012,25546,0,1.005859375,-0.0234375,0.01953125,-0.00390625,0.0,0.0,0.0
32180271,25547,0,1.001953125,-0.0234375,0.015625,-0.0078125,0.0,0.0,0.0
32181521,25548,0,0.998046875,-0.021484375,0.013671875,-0.0078125,0.0,0.0,0.0
32182773,25549,0,1.00390625,-0.017578125,0.017578125,0.0,0.0,0.0,0.0
32184023,25550,0,1.015625,-0.013671875,0.015625,0.001953125,0.0,0.0,0.0
32185274,25551,0,1.00390625,-0.017578125,0.01953125,0.001953125,0.0,0.0,0.0
32186525,25552,0,1.005859375,-0.017578125,0.01171875,-0.005859375,0.0,0.0,0.0
32187776,25553,0,1.013671875,-0.02734375,0.013671875,-0.013671875,0.0,0.0,0.0
32189026,25554,0,1.005859375,-0.015625,0.01953125,0.00390625,0.0,0.0,0.0
32190276,25555,0,0.998046875,-0.021484375,0.009765625,-0.01171875,0.0,0.0,0.0
32191527,25556,0,1.009765625,-0.02734375,0.01171875,-0.015625,0.0,0.0,0.0
32192778,25557,0,0.990234375,-0.025390625,0.009765625,-0.015625,0.0,0.0,0.0
32194029,25558,0,1.001953125,-0.029296875,0.01953125,-0.009765625,0.0,0.0,0.0
32195280,25559,0,1.001953125,-0.03125,0.01171875,-0.01953125,0.0,0.0,0.0
32196531,25560,0,1.005859375,-0.025390625,0.01953125,-0.005859375,0.0,0.0,0.0
32197783,25561,0,1.0,-0.025390625,0.005859375,-0.01953125,0.0,0.0,0.0
32199034,25562,0,1.001953125,-0.03125,0.015625,-0.015625,0.0,0.0,0.0
32200286,25563,0,1.00390625,-0.02734375,0.015625,-0.01171875,0.0,0.0,0.0
32201537,25564,0,1.00390625,-0.029296875,0.013671875,-0.015625,0.0,0.0,0.0
32202789,25565,0,1.00390625,-0.02734375,0.01953125,-0.0078125,0.0,0.0,0.0
32204039,25566,0,1.001953125,-0.025390625,0.01171875,-0.013671875,0.0,0.0,0.0
32205289,25567,0,1.005859375,-0.02734375,0.01171875,-0.015625,0.0,0.0,0.0
32206541,25568,0,1.005859375,-0.025390625,0.015625,-0.009765625,0.0,0.0,0.0
32207792,25569,0,1.0,-0.03125,0.009765625,-0.021484375,0.0,0.0,0.0
32209044,25570,0,0.998046875,-0.029296875,0.015625,-0.013671875,0.0,0.0,0.0
32210294,25571,0,1.005859375,-0.033203125,0.01171875,-0.021484375,0.0,0.0,0.0
32211544,25572,0,1.00390625,-0.033203125,0.013671875,-0.01953125,0.0,0.0,0.0
32212795,25573,0,1.001953125,-0.029296875,0.013671875,-0.015625,0.0,0.0,0.0
32214045,25574,0,1.005859375,-0.03125,0.0078125,-0.0234375,0.0,0.0,0.0
32215295,25575,0,1.013671875,-0.03125,0.015625,-0.015625,0.0,0.0,0.0
32216546,25576,0,1.01171875,-0.03125,0.01953125,-0.01171875,0.0,0.0,0.0
32217797,25577,0,1.001953125,-0.029296875,0.015625,-0.013671875,0.0,0.0,0.0
32219048,25578,0,1.0,-0.021484375,0.01953125,-0.001953125,0.0,0.0,0.0
32220299,25579,0,1.0078125,-0.0234375,0.015625,-0.0078125,0.0,0.0,0.0
32221549,25580,0,1.00390625,-0.025390625,0.021484375,-0.00390625,0.0,0.0,0.0
32222800,25581,0,1.005859375,-0.025390625,0.01171875,-0.013671875,0.0,0.0,0.0
32224051,25582,0,1.00390625,-0.0234375,0.021484375,-0.001953125,0.0,0.0,0.0
32225302,25583,0,1.001953125,-0.02734375,0.017578125,-0.009765625,0.0,0.0,0.0
32226553,25584,0,1.001953125,-0.021484375,0.017578125,-0.00390625,0.0,0.0,0.0
32227805,25585,0,1.001953125,-0.025390625,0.017578125,-0.0078125,0.0,0.0,0.0
32229055,25586,0,1.001953125,-0.02734375,0.017578125,-0.009765625,0.0,0.0,0.0
32230305,25587,0,0.998046875,-0.0234375,0.01953125,-0.00390625,0.0,0.0,0.0
32231556,25588,0,1.0078125,-0.025390625,0.01953125,-0.005859375,0.0,0.0,0.0
32232808,25589,0,1.005859375,-0.0234375,0.017578125,-0.005859375,0.0,0.0,0.0
32234058,25590,0,1.005859375,-0.02734375,0.021484375,-0.005859375,0.0,0.0,0.0
32235308,25591,0,1.00390625,-0.02734375,0.015625,-0.01171875,0.0,0.0,0.0
32236559,25592,0,1.009765625,-0.01953125,0.01953125,0.0,0.0,0.0,0.0
32237809,25593,0,1.005859375,-0.021484375,0.021484375,0.0,0.0,0.0,0.0
32239059,25594,0,1.005859375,-0.025390625,0.015625,-0.009765625,0.0,0.0,0.0
32240310,25595,0,0.998046875,-0.01953125,0.021484375,0.001953125,0.0,0.0,0.0
32241560,25596,0,1.00390625,-0.021484375,0.021484375,0.0,0.0,0.0,0.0
32242812,25597,0,1.005859375,-0.0234375,0.021484375,-0.001953125,0.0,0.0,0.0
32244063,25598,0,1.001953125,-0.0234375,0.01953125,-0.00390625,0.0,0.0,0.0
32245314,25599,0,1.005859375,-0.02734375,0.013671875,-0.013671875,0.0,0.0,0.0
32246565,25600,0,1.001953125,-0.017578125,0.017578125,0.0,0.0,0.0,0.0
32247816,25601,0,1.005859375,-0.0234375,0.009765625,-0.013671875,0.0,0.0,0.0
32249066,25602,0,1.009765625,-0.02734375,0.015625,-0.01171875,0.0,0.0,0.0
32250318,25603,0,1.00390625,-0.021484375,0.005859375,-0.015625,0.0,0.0,0.0
32251569,25604,0,1.005859375,-0.01953125,0.015625,-0.00390625,0.0,0.0,0.0
32252819,25605,0,1.0078125,-0.025390625,0.015625,-0.009765625,0.0,0.0,0.0
32254070,25606,0,1.001953125,-0.029296875,0.015625,-0.013671875,0.0,0.0,0.0
32255321,25607,0,1.0,-0.02734375,0.01953125,-0.0078125,0.0,0.0,0.0
32256572,25608,0,0.998046875,-0.02734375,0.01171875,-0.015625,0.0,0.0,0.0
32257823,25609,0,1.005859375,-0.025390625,0.015625,-0.009765625,0.0,0.0,0.0
32259074,25610,0,1.0,-0.03125,0.015625,-0.015625,0.0,0.0,0.0
32260325,25611,0,1.005859375,-0.02734375,0.013671875,-0.013671875,0.0,0.0,0.0
32261575,25612,0,1.009765625,-0.03125,0.01171875,-0.01953125,0.0,0.0,0.0
32262825,25613,0,1.005859375,-0.029296875,0.013671875,-0.015625,0.0,0.0,0.0
32264076,25614,0,1.001953125,-0.029296875,0.013671875,-0.015625,0.0,0.0,0.0
32265326,25615,0,0.998046875,-0.03125,0.0078125,-0.0234375,0.0,0.0,0.0
32266577,25616,0,1.005859375,-0.037109375,0.0078125,-0.029296875,0.0,0.0,0.0
32267828,25617,0,0.994140625,-0.03125,0.017578125,-0.013671875,0.0,0.0,0.0
32269078,25618,0,0.99609375,-0.03125,0.005859375,-0.025390625,0.0,0.0,0.0
32270329,25619,0,0.998046875,-0.03125,0.01171875,-0.01953125,0.0,0.0,0.0
32271581,25620,0,1.0,-0.03125,0.013671875,-0.017578125,0.0,0.0,0.0
32272833,25621,0,1.013671875,-0.03515625,0.017578125,-0.017578125,0.0,0.0,0.0
32274083,25622,0,0.99609375,-0.033203125,0.017578125,-0.015625,0.0,0.0,0.0
32275333,25623,0,1.00390625,-0.03125,0.017578125,-0.013671875,0.0,0.0,0.0
32276584,25624,0,1.0,-0.03125,0.017578125,-0.013671875,0.0,0.0,0.0
32277835,25625,0,1.005859375,-0.029296875,0.015625,-0.013671875,0.0,0.0,0.0
32279085,25626,0,1.001953125,-0.03125,0.013671875,-0.017578125,0.0,0.0,0.0
32280336,25627,0,1.005859375,-0.029296875,0.01953125,-0.009765625,0.0,0.0,0.0
32281587,25628,0,1.0078125,-0.029296875,0.01171875,-0.017578125,0.0,0.0,0.0
32282838,25629,0,1.0078125,-0.029296875,0.017578125,-0.01171875,0.0,0.0,0.0
32284090,25630,0,1.005859375,-0.02734375,0.01953125,-0.0078125,0.0,0.0,0.0
32285341,25631,0,1.005859375,-0.029296875,0.017578125,-0.01171875,0.0,0.0,0.0
32286592,25632,0,1.0,-0.03125,0.015625,-0.015625,0.0,0.0,0.0
32287844,25633,0,1.001953125,-0.02734375,0.015625,-0.01171875,0.0,0.0,0.0
32289095,25634,0,1.0,-0.0234375,0.01953125,-0.00390625,0.0,0.0,0.0
32290346,25635,0,1.005859375,-0.02734375,0.01953125,-0.0078125,0.0,0.0,0.0
32291597,25636,0,1.005859375,-0.025390625,0.015625,-0.009765625,0.0,0.0,0.0
32292849,25637,0,1.009765625,-0.01953125,0.015625,-0.00390625,0.0,0.0,0.0
32294099,25638,0,0.998046875,-0.025390625,0.017578125,-0.0078125,0.0,0.0,0.0
32295351,25639,0,0.998046875,-0.021484375,0.017578125,-0.00390625,0.0,0.0,0.0
32296602,25640,0,1.0078125,-0.0234375,0.015625,-0.0078125,0.0,0.0,0.0
32297854,25641,0,1.0,-0.02734375,0.015625,-0.01171875,0.0,0.0,0.0
32299104,25642,0,0.998046875,-0.025390625,0.013671875,-0.01171875,0.0,0.0,0.0
32300354,25643,0,0.998046875,-0.025390625,0.01171875,-0.013671875,0.0,0.0,0.0
32301605,25644,0,0.998046875,-0.021484375,0.013671875,-0.0078125,0.0,0.0,0.0
32302855,25645,0,1.001953125,-0.021484375,0.009765625,-0.01171875,0.0,0.0,0.0
32304107,25646,0,1.005859375,-0.021484375,0.01953125,-0.001953125,0.0,0.0,0.0
32305358,25647,0,1.005859375,-0.017578125,0.017578125,0.0,0.0,0.0,0.0
32306609,25648,0,1.001953125,-0.0234375,0.013671875,-0.009765625,0.0,0.0,0.0
32307859,25649,0,1.0,-0.01953125,0.015625,-0.00390625,0.0,0.0,0.0
32309111,25650,0,1.0,-0.017578125,0.01953125,0.001953125,0.0,0.0,0.0
32310362,25651,0,1.001953125,-0.0234375,0.009765625,-0.013671875,0.0,0.0,0.0
32311613,25652,0,1.0078125,-0.021484375,0.021484375,0.0,0.0,0.0,0.0
32312865,25653,0,1.005859375,-0.0234375,0.017578125,-0.005859375,0.0,0.0,0.0
32314115,25654,0,1.00390625,-0.021484375,0.01953125,-0.001953125,0.0,0.0,0.0
32315365,25655,0,1.0078125,-0.0234375,0.013671875,-0.009765625,0.0,0.0,0.0
32316617,25656,0,1.001953125,-0.03125,0.017578125,-0.013671875,0.0,0.0,0.0
32317867,25657,0,1.009765625,-0.02734375,0.009765625,-0.017578125,0.0,0.0,0.0
32319118,25658,0,1.005859375,-0.02734375,0.013671875,-0.013671875,0.0,0.0,0.0
32320369,25659,0,1.0078125,-0.025390625,0.013671875,-0.01171875,0.0,0.0,0.0
32321620,25660,0,1.001953125,-0.017578125,0.015625,-0.001953125,0.0,0.0,0.0
32322871,25661,0,1.01171875,-0.0234375,0.01953125,-0.00390625,0.0,0.0,0.0
32324123,25662,0,0.998046875,-0.021484375,0.01953125,-0.001953125,0.0,0.0,0.0
32325374,25663,0,1.009765625,-0.021484375,0.0078125,-0.013671875,0.0,0.0,0.0
32326624,25664,0,1.005859375,-0.017578125,0.01171875,-0.005859375,0.0,0.0,0.0
32327875,25665,0,1.005859375,-0.029296875,0.015625,-0.013671875,0.0,0.0,0.0
32329125,25666,0,1.013671875,-0.03125,0.017578125,-0.013671875,0.0,0.0,0.0
32330375,25667,0,1.001953125,-0.03125,0.015625,-0.015625,0.0,0.0,0.0
32331626,25668,0,1.0,-0.03515625,0.01953125,-0.015625,0.0,0.0,0.0
32332877,25669,0,1.001953125,-0.03125,0.009765625,-0.021484375,0.0,0.0,0.0
32334129,25670,0,1.005859375,-0.029296875,0.01953125,-0.009765625,0.0,0.0,0.0
32335380,25671,0,1.001953125,-0.029296875,0.017578125,-0.01171875,0.0,0.0,0.0
32336630,25672,0,1.001953125,-0.03125,0.015625,-0.015625,0.0,0.0,0.0
32337881,25673,0,1.0078125,-0.029296875,0.017578125,-0.01171875,0.0,0.0,0.0
32339133,25674,0,1.005859375,-0.025390625,0.013671875,-0.01171875,0.0,0.0,0.0
32340384,25675,0,1.001953125,-0.02734375,0.017578125,-0.009765625,0.0,0.0,0.0
32341634,25676,0,1.0,-0.03125,0.017578125,-0.013671875,0.0,0.0,0.0
32342886,25677,0,1.005859375,-0.0234375,0.021484375,-0.001953125,0.0,0.0,0.0
32344136,25678,0,1.00390625,-0.02734375,0.01171875,-0.015625,0.0,0.0,0.0
32345386,25679,0,1.00390625,-0.0234375,0.021484375,-0.001953125,0.0,0.0,0.0
32346638,25680,0,1.0,-0.02734375,0.015625,-0.01171875,0.0,0.0,0.0
32347888,25681,0,1.009765625,-0.03515625,0.015625,-0.01953125,0.0,0.0,0.0
32349139,25682,0,1.0,-0.029296875,0.01953125,-0.009765625,0.0,0.0,0.0
32350391,25683,0,0.99609375,-0.033203125,0.01953125,-0.013671875,0.0,0.0,0.0
32351641,25684,0,1.005859375,-0.029296875,0.013671875,-0.015625,0.0,0.0,0.0
32352892,25685,0,1.001953125,-0.03125,0.021484375,-0.009765625,0.0,0.0,0.0
32354142,25686,0,1.0078125,-0.0234375,0.01953125,-0.00390625,0.0,0.0,0.0
32355393,25687,0,0.99609375,-0.025390625,0.01171875,-0.013671875,0.0,0.0,0.0
32356645,25688,0,1.005859375,-0.025390625,0.017578125,-0.0078125,0.0,0.0,0.0
32357895,25689,0,0.998046875,-0.025390625,0.017578125,-0.0078125,0.0,0.0,0.0
32359147,25690,0,1.0,-0.025390625,0.021484375,-0.00390625,0.0,0.0,0.0
32360397,25691,0,1.005859375,-0.02734375,0.015625,-0.01171875,0.0,0.0,0.0
32361649,25692,0,1.005859375,-0.02734375,0.015625,-0.01171875,0.0,0.0,0.0
32362899,25693,0,1.001953125,-0.02734375,0.01953125,-0.0078125,0.0,0.0,0.0
32364149,25694,0,1.001953125,-0.0234375,0.013671875,-0.009765625,0.0,0.0,0.0
32365399,25695,0,1.001953125,-0.025390625,0.017578125,-0.0078125,0.0,0.0,0.0
32366650,25696,0,1.0078125,-0.025390625,0.013671875,-0.01171875,0.0,0.0,0.0
32367902,25697,0,1.001953125,-0.0234375,0.017578125,-0.005859375,0.0,0.0,0.0
32369153,25698,0,1.005859375,-0.0234375,0.013671875,-0.009765625,0.0,0.0,0.0
32370404,25699,0,1.0078125,-0.021484375,0.015625,-0.005859375,0.0,0.0,0.0
32371654,25700,0,1.001953125,-0.0234375,0.013671875,-0.009765625,0.0,0.0,0.0
32372904,25701,0,1.001953125,-0.021484375,0.013671875,-0.0078125,0.0,0.0,0.0
32374155,25702,0,1.01953125,-0.015625,0.015625,0.0,0.0,0.0,0.0
32375407,25703,0,1.005859375,-0.01953125,0.01171875,-0.0078125,0.0,0.0,0.0
32376657,25704,0,0.998046875,-0.0234375,0.025390625,0.001953125,0.0,0.0,0.0
32377909,25705,0,1.0,-0.01953125,0.015625,-0.00390625,0.0,0.0,0.0
32379159,25706,0,1.00390625,-0.02734375,0.01171875,-0.015625,0.0,0.0,0.0
32380409,25707,0,1.0078125,-0.017578125,0.01953125,0.001953125,0.0,0.0,0.0
32381661,25708,0,1.0078125,-0.025390625,0.01171875,-0.013671875,0.0,0.0,0.0
32382911,25709,0,1.0,-0.021484375,0.017578125,-0.00390625,0.0,0.0,0.0
32384161,25710,0,1.005859375,-0.025390625,0.015625,-0.009765625,0.0,0.0,0.0
32385411,25711,0,1.0078125,-0.025390625,0.017578125,-0.0078125,0.0,0.0,0.0
32386663,25712,0,1.001953125,-0.025390625,0.01171875,-0.013671875,0.0,0.0,0.0
32387913,25713,0,1.00390625,-0.02734375,0.015625,-0.01171875,0.0,0.0,0.0
32389164,25714,0,0.998046875,-0.02734375,0.013671875,-0.013671875,0.0,0.0,0.0
32390415,25715,0,1.009765625,-0.025390625,0.01171875,-0.013671875,0.0,0.0,0.0
32391666,25716,0,1.009765625,-0.0234375,0.013671875,-0.009765625,0.0,0.0,0.0
32392916,25717,0,1.001953125,-0.02734375,0.015625,-0.01171875,0.0,0.0,0.0
32394167,25718,0,1.01171875,-0.029296875,0.01171875,-0.017578125,0.0,0.0,0.0
32395417,25719,0,1.001953125,-0.03125,0.005859375,-0.025390625,0.0,0.0,0.0
32396668,25720,0,1.001953125,-0.029296875,0.013671875,-0.015625,0.0,0.0,0.0
32397920,25721,0,0.998046875,-0.02734375,0.0078125,-0.01953125,0.0,0.0,0.0
32399171,25722,0,1.0,-0.025390625,0.0078125,-0.017578125,0.0,0.0,0.0
32400421,25723,0,1.00390625,-0.029296875,0.00390625,-0.025390625,0.0,0.0,0.0
32401672,25724,0,1.001953125,-0.029296875,0.017578125,-0.01171875,0.0,0.0,0.0
32402924,25725,0,1.01953125,-0.02734375,0.01953125,-0.0078125,0.0,0.0,0.0
32404174,25726,0,0.9921875,-0.021484375,0.013671875,-0.0078125,0.0,0.0,0.0
32405425,25727,0,0.998046875,-0.03125,0.01171875,-0.01953125,0.0,0.0,0.0
32406677,25728,0,0.998046875,-0.029296875,0.009765625,-0.01953125,0.0,0.0,0.0
32407927,25729,0,1.0,-0.025390625,0.009765625,-0.015625,0.0,0.0,0.0
32409177,25730,0,1.009765625,-0.025390625,0.001953125,-0.0234375,0.0,0.0,0.0
32410429,25731,0,1.001953125,-0.0234375,0.017578125,-0.005859375,0.0,0.0,0.0
32411679,25732,0,1.00390625,-0.021484375,0.013671875,-0.0078125,0.0,0.0,0.0
32412931,25733,0,1.0,-0.029296875,0.013671875,-0.015625,0.0,0.0,0.0
32414181,25734,0,1.0,-0.02734375,0.015625,-0.01171875,0.0,0.0,0.0
32415431,25735,0,1.005859375,-0.02734375,0.017578125,-0.009765625,0.0,0.0,0.0
32416683,25736,0,1.0078125,-0.0234375,0.021484375,-0.001953125,0.0,0.0,0.0
32417933,25737,0,1.001953125,-0.025390625,0.015625,-0.009765625,0.0,0.0,0.0
32419183,25738,0,1.005859375,-0.029296875,0.01171875,-0.017578125,0.0,0.0,0.0
32420434,25739,0,1.0078125,-0.029296875,0.013671875,-0.015625,0.0,0.0,0.0
32421685,25740,0,1.001953125,-0.02734375,0.015625,-0.01171875,0.0,0.0,0.0
32422936,25741,0,1.0078125,-0.025390625,0.017578125,-0.0078125,0.0,0.0,0.0
32424186,25742,0,0.99609375,-0.025390625,0.01953125,-0.005859375,0.0,0.0,0.0
32425437,25743,0,1.0,-0.029296875,0.01953125,-0.009765625,0.0,0.0,0.0
32426687,25744,0,1.001953125,-0.025390625,0.017578125,-0.0078125,0.0,0.0,0.0
32427937,25745,0,1.001953125,-0.025390625,0.017578125,-0.0078125,0.0,0.0,0.0
32429188,25746,0,1.005859375,-0.0234375,0.01171875,-0.01171875,0.0,0.0,0.0
32430440,25747,0,1.00390625,-0.025390625,0.015625,-0.009765625,0.0,0.0,0.0
32431690,25748,0,0.99609375,-0.025390625,0.01953125,-0.005859375,0.0,0.0,0.0
32432942,25749,0,1.013671875,-0.029296875,0.01171875,-0.017578125,0.0,0.0,0.0
32434193,25750,0,1.00390625,-0.02734375,0.013671875,-0.013671875,0.0,0.0,0.0
32435445,25751,0,1.001953125,-0.02734375,0.013671875,-0.013671875,0.0,0.0,0.0
32436695,25752,0,1.009765625,-0.0234375,0.013671875,-0.009765625,0.0,0.0,0.0
32437947,25753,0,1.001953125,-0.0234375,0.01953125,-0.00390625,0.0,0.0,0.0
32439198,25754,0,1.00390625,-0.025390625,0.01953125,-0.005859375,0.0,0.0,0.0
32440450,25755,0,1.0078125,-0.02734375,0.009765625,-0.017578125,0.0,0.0,0.0
32441700,25756,0,1.0078125,-0.02734375,0.017578125,-0.009765625,0.0,0.0,0.0
32442952,25757,0,1.0078125,-0.01953125,0.015625,-0.00390625,0.0,0.0,0.0
32444203,25758,0,1.00390625,-0.029296875,0.015625,-0.013671875,0.0,0.0,0.0
32445454,25759,0,1.005859375,-0.029296875,0.0078125,-0.021484375,0.0,0.0,0.0
32446705,25760,0,1.001953125,-0.029296875,0.017578125,-0.01171875,0.0,0.0,0.0
32447957,25761,0,0.998046875,-0.02734375,0.013671875,-0.013671875,0.0,0.0,0.0
32449207,25762,0,0.998046875,-0.02734375,0.01171875,-0.015625,0.0,0.0,0.0
32450459,25763,0,1.001953125,-0.025390625,0.015625,-0.009765625,0.0,0.0,0.0
32451709,25764,0,1.001953125,-0.029296875,0.01953125,-0.009765625,0.0,0.0,0.0
32452959,25765,0,1.001953125,-0.0234375,0.01171875,-0.01171875,0.0,0.0,0.0
32454209,25766,0,1.0078125,-0.03125,0.015625,-0.015625,0.0,0.0,0.0
32455459,25767,0,1.005859375,-0.029296875,0.001953125,-0.02734375,0.0,0.0,0.0
32456711,25768,0,1.0,-0.025390625,0.021484375,-0.00390625,0.0,0.0,0.0
32457961,25769,0,0.99609375,-0.029296875,0.013671875,-0.015625,0.0,0.0,0.0
32459213,25770,0,1.00390625,-0.025390625,0.017578125,-0.0078125,0.0,0.0,0.0
32460464,25771,0,1.001953125,-0.029296875,0.01953125,-0.009765625,0.0,0.0,0.0
32461715,25772,0,1.001953125,-0.0234375,0.01171875,-0.01171875,0.0,0.0,0.0
32462966,25773,0,1.005859375,-0.025390625,0.017578125,-0.0078125,0.0,0.0,0.0
32464216,25774,0,0.998046875,-0.029296875,0.015625,-0.013671875,0.0,0.0,0.0
32465467,25775,0,1.005859375,-0.03125,0.01171875,-0.01953125,0.0,0.0,0.0
32466718,25776,0,1.00390625,-0.025390625,0.009765625,-0.015625,0.0,0.0,0.0
32467968,25777,0,1.0,-0.03125,0.01953125,-0.01171875,0.0,0.0,0.0
32469219,25778,0,1.001953125,-0.029296875,0.013671875,-0.015625,0.0,0.0,0.0
32470470,25779,0,1.0078125,-0.03125,0.01171875,-0.01953125,0.0,0.0,0.0
32471721,25780,0,1.00390625,-0.03125,0.013671875,-0.017578125,0.0,0.0,0.0
32472971,25781,0,1.005859375,-0.029296875,0.017578125,-0.01171875,0.0,0.0,0.0
32474223,25782,0,1.0,-0.029296875,0.015625,-0.013671875,0.0,0.0,0.0
32475473,25783,0,1.0,-0.0234375,0.013671875,-0.009765625,0.0,0.0,0.0
32476723,25784,0,1.00390625,-0.02734375,0.0078125,-0.01953125,0.0,0.0,0.0
32477975,25785,0,1.00390625,-0.029296875,0.01171875,-0.017578125,0.0,0.0,0.0
32479226,25786,0,1.001953125,-0.02734375,0.01953125,-0.0078125,0.0,0.0,0.0
32480476,25787,0,1.001953125,-0.02734375,0.01171875,-0.015625,0.0,0.0,0.0
32481728,25788,0,0.998046875,-0.029296875,0.021484375,-0.0078125,0.0,0.0,0.0
32482979,25789,0,0.998046875,-0.02734375,0.01953125,-0.0078125,0.0,0.0,0.0
32484229,25790,0,1.001953125,-0.025390625,0.01171875,-0.013671875,0.0,0.0,0.0
32485481,25791,0,1.00390625,-0.0234375,0.01171875,-0.01171875,0.0,0.0,0.0
32486731,25792,0,1.01171875,-0.021484375,0.01953125,-0.001953125,0.0,0.0,0.0
32487981,25793,0,1.013671875,-0.02734375,0.015625,-0.01171875,0.0,0.0,0.0
32489232,25794,0,1.005859375,-0.021484375,0.017578125,-0.00390625,0.0,0.0,0.0
32490483,25795,0,1.00390625,-0.025390625,0.013671875,-0.01171875,0.0,0.0,0.0
32491734,25796,0,1.005859375,-0.0234375,0.017578125,-0.005859375,0.0,0.0,0.0
32492986,25797,0,1.005859375,-0.0234375,0.01953125,-0.00390625,0.0,0.0,0.0
32494236,25798,0,0.998046875,-0.021484375,0.017578125,-0.00390625,0.0,0.0,0.0
32495486,25799,0,1.001953125,-0.029296875,0.017578125,-0.01171875,0.0,0.0,0.0
32496737,25800,0,1.005859375,-0.0234375,0.017578125,-0.005859375,0.0,0.0,0.0
32497987,25801,0,1.005859375,-0.02734375,0.017578125,-0.009765625,0.0,0.0,0.0
32499238,25802,0,1.005859375,-0.021484375,0.017578125,-0.00390625,0.0,0.0,0.0
32500489,25803,0,1.00390625,-0.025390625,0.017578125,-0.0078125,0.0,0.0,0.0
32501740,25804,0,1.005859375,-0.02734375,0.01953125,-0.0078125,0.0,0.0,0.0
32502991,25805,0,1.005859375,-0.025390625,0.01953125,-0.005859375,0.0,0.0,0.0
32504241,25806,0,1.00390625,-0.0234375,0.015625,-0.0078125,0.0,0.0,0.0
32505492,25807,0,1.00390625,-0.02734375,0.021484375,-0.005859375,0.0,0.0,0.0
32506744,25808,0,1.005859375,-0.02734375,0.013671875,-0.013671875,0.0,0.0,0.0
32507994,25809,0,0.994140625,-0.02734375,0.015625,-0.01171875,0.0,0.0,0.0
32509245,25810,0,1.009765625,-0.0234375,0.015625,-0.0078125,0.0,0.0,0.0
32510496,25811,0,1.013671875,-0.021484375,0.009765625,-0.01171875,0.0,0.0,0.0
32511747,25812,0,1.009765625,-0.02734375,0.017578125,-0.009765625,0.0,0.0,0.0
32512998,25813,0,1.00390625,-0.0234375,0.013671875,-0.009765625,0.0,0.0,0.0
32514249,25814,0,1.00390625,-0.0234375,0.01953125,-0.00390625,0.0,0.0,0.0
32515499,25815,0,1.00390625,-0.03125,0.017578125,-0.013671875,0.0,0.0,0.0
32516751,25816,0,1.0,-0.025390625,0.0078125,-0.017578125,0.0,0.0,0.0
32518002,25817,0,1.009765625,-0.029296875,0.013671875,-0.015625,0.0,0.0,0.0
32519253,25818,0,1.001953125,-0.0234375,0.013671875,-0.009765625,0.0,0.0,0.0
32520503,25819,0,1.0078125,-0.03125,0.015625,-0.015625,0.0,0.0,0.0
32521755,25820,0,1.0078125,-0.02734375,0.009765625,-0.017578125,0.0,0.0,0.0
32523005,25821,0,1.00390625,-0.03125,0.013671875,-0.017578125,0.0,0.0,0.0
32524256,25822,0,1.0078125,-0.02734375,0.01171875,-0.015625,0.0,0.0,0.0
32525506,25823,0,1.0078125,-0.0234375,0.01953125,-0.00390625,0.0,0.0,0.0
32526757,25824,0,1.0,-0.025390625,0.017578125,-0.0078125,0.0,0.0,0.0
32528008,25825,0,1.005859375,-0.0234375,0.01171875,-0.01171875,0.0,0.0,0.0
32529258,25826,0,1.001953125,-0.025390625,0.01171875,-0.013671875,0.0,0.0,0.0
32530508,25827,0,1.0078125,-0.025390625,0.015625,-0.009765625,0.0,0.0,0.0
32531759,25828,0,1.009765625,-0.02734375,0.013671875,-0.013671875,0.0,0.0,0.0
32533009,25829,0,1.00390625,-0.021484375,0.017578125,-0.00390625,0.0,0.0,0.0
32534259,25830,0,1.005859375,-0.03125,0.01171875,-0.01953125,0.0,0.0,0.0
32535510,25831,0,0.99609375,-0.021484375,0.01171875,-0.009765625,0.0,0.0,0.0
32536762,25832,0,1.001953125,-0.029296875,0.01171875,-0.017578125,0.0,0.0,0.0
32538012,25833,0,0.990234375,-0.025390625,0.01953125,-0.005859375,0.0,0.0,0.0
32539271,25834,0,0.99609375,-0.025390625,0.01953125,-0.005859375,0.0,0.0,0.0
32540521,25835,0,1.013671875,-0.0234375,0.01171875,-0.01171875,0.0,0.0,0.0
32541773,25836,0,1.001953125,-0.02734375,0.009765625,-0.017578125,0.0,0.0,0.0
32543023,25837,0,0.99609375,-0.025390625,0.013671875,-0.01171875,0.0,0.0,0.0
32544274,25838,0,1.005859375,-0.025390625,0.013671875,-0.01171875,0.0,0.0,0.0
32545525,25839,0,0.998046875,-0.0234375,0.017578125,-0.005859375,0.0,0.0,0.0
32546776,25840,0,1.001953125,-0.0234375,0.013671875,-0.009765625,0.0,0.0,0.0
32548026,25841,0,1.00390625,-0.025390625,0.009765625,-0.015625,0.0,0.0,0.0
32549276,25842,0,1.001953125,-0.0234375,0.01171875,-0.01171875,0.0,0.0,0.0
32550527,25843,0,1.0078125,-0.03125,0.01953125,-0.01171875,0.0,0.0,0.0
32551778,25844,0,1.009765625,-0.029296875,0.013671875,-0.015625,0.0,0.0,0.0
32553029,25845,0,1.00390625,-0.02734375,0.017578125,-0.009765625,0.0,0.0,0.0
32554280,25846,0,1.001953125,-0.029296875,0.015625,-0.013671875,0.0,0.0,0.0
32555531,25847,0,1.001953125,-0.0234375,0.01171875,-0.01171875,0.0,0.0,0.0
32556783,25848,0,1.001953125,-0.025390625,0.017578125,-0.0078125,0.0,0.0,0.0
32558034,25849,0,1.00390625,-0.0234375,0.017578125,-0.005859375,0.0,0.0,0.0
32559286,25850,0,1.0078125,-0.01953125,0.017578125,-0.001953125,0.0,0.0,0.0
32560537,25851,0,1.0078125,-0.029296875,0.021484375,-0.0078125,0.0,0.0,0.0
32561789,25852,0,1.001953125,-0.025390625,0.01953125,-0.005859375,0.0,0.0,0.0
32563039,25853,0,1.005859375,-0.0234375,0.005859375,-0.017578125,0.0,0.0,0.0
32564289,25854,0,1.005859375,-0.025390625,0.009765625,-0.015625,0.0,0.0,0.0
32565541,25855,0,0.994140625,-0.025390625,0.00390625,-0.021484375,0.0,0.0,0.0
32566792,25856,0,1.00390625,-0.033203125,0.01953125,-0.013671875,0.0,0.0,0.0
32568044,25857,0,1.001953125,-0.029296875,0.013671875,-0.015625,0.0,0.0,0.0
32569294,25858,0,1.009765625,-0.025390625,0.021484375,-0.00390625,0.0,0.0,0.0
32570544,25859,0,1.015625,-0.021484375,0.017578125,-0.00390625,0.0,0.0,0.0
32571795,25860,0,1.005859375,-0.02734375,0.01171875,-0.015625,0.0,0.0,0.0
32573045,25861,0,1.001953125,-0.025390625,0.009765625,-0.015625,0.0,0.0,0.0
32574295,25862,0,1.001953125,-0.02734375,0.01171875,-0.015625,0.0,0.0,0.0
32575546,25863,0,0.998046875,-0.025390625,0.013671875,-0.01171875,0.0,0.0,0.0
32576797,25864,0,1.001953125,-0.029296875,0.013671875,-0.015625,0.0,0.0,0.0
32578048,25865,0,1.005859375,-0.029296875,0.01953125,-0.009765625,0.0,0.0,0.0
32579299,25866,0,1.00390625,-0.025390625,0.013671875,-0.01171875,0.0,0.0,0.0
32580550,25867,0,1.0,-0.0234375,0.015625,-0.0078125,0.0,0.0,0.0
32581800,25868,0,0.99609375,-0.029296875,0.015625,-0.013671875,0.0,0.0,0.0
32583052,25869,0,1.0,-0.03125,0.021484375,-0.009765625,0.0,0.0,0.0
32584303,25870,0,1.001953125,-0.029296875,0.013671875,-0.015625,0.0,0.0,0.0
32585554,25871,0,1.0,-0.03125,0.017578125,-0.013671875,0.0,0.0,0.0
32586805,25872,0,1.005859375,-0.02734375,0.009765625,-0.017578125,0.0,0.0,0.0
32588057,25873,0,1.009765625,-0.0234375,0.021484375,-0.001953125,0.0,0.0,0.0
32589308,25874,0,1.0,-0.025390625,0.013671875,-0.01171875,0.0,0.0,0.0
32590560,25875,0,1.001953125,-0.02734375,0.021484375,-0.005859375,0.0,0.0,0.0
32591811,25876,0,1.0078125,-0.029296875,0.01953125,-0.009765625,0.0,0.0,0.0
32593063,25877,0,1.005859375,-0.029296875,0.015625,-0.013671875,0.0,0.0,0.0
32594314,25878,0,1.001953125,-0.029296875,0.01953125,-0.009765625,0.0,0.0,0.0
32595565,25879,0,1.005859375,-0.025390625,0.005859375,-0.01953125,0.0,0.0,0.0
32596816,25880,0,1.00390625,-0.03125,0.015625,-0.015625,0.0,0.0,0.0
32598066,25881,0,1.005859375,-0.03125,0.01953125,-0.01171875,0.0,0.0,0.0
32599318,25882,0,1.001953125,-0.029296875,0.015625,-0.013671875,0.0,0.0,0.0
32600569,25883,0,0.99609375,-0.02734375,0.017578125,-0.009765625,0.0,0.0,0.0
32601819,25884,0,1.0,-0.02734375,0.0078125,-0.01953125,0.0,0.0,0.0
32603070,25885,0,1.0,-0.021484375,0.017578125,-0.00390625,0.0,0.0,0.0
32604321,25886,0,1.001953125,-0.025390625,0.017578125,-0.0078125,0.0,0.0,0.0
32605572,25887,0,1.005859375,-0.03125,0.015625,-0.015625,0.0,0.0,0.0
32606823,25888,0,1.005859375,-0.02734375,0.013671875,-0.013671875,0.0,0.0,0.0
32608074,25889,0,1.0078125,-0.0234375,0.01953125,-0.00390625,0.0,0.0,0.0
32609325,25890,0,1.005859375,-0.02734375,0.01171875,-0.015625,0.0,0.0,0.0
32610575,25891,0,1.0,-0.03125,0.009765625,-0.021484375,0.0,0.0,0.0
32611825,25892,0,1.00390625,-0.02734375,0.013671875,-0.013671875,0.0,0.0,0.0
32613076,25893,0,1.00390625,-0.02734375,0.021484375,-0.005859375,0.0,0.0,0.0
32614326,25894,0,1.001953125,-0.0234375,0.015625,-0.0078125,0.0,0.0,0.0
32615577,25895,0,1.0,-0.0234375,0.015625,-0.0078125,0.0,0.0,0.0
32616828,25896,0,0.998046875,-0.029296875,0.01171875,-0.017578125,0.0,0.0,0.0
32618078,25897,0,0.998046875,-0.025390625,0.017578125,-0.0078125,0.0,0.0,0.0
32619329,25898,0,1.00390625,-0.0234375,0.015625,-0.0078125,0.0,0.0,0.0
32620581,25899,0,0.998046875,-0.029296875,0.005859375,-0.0234375,0.0,0.0,0.0
32621833,25900,0,1.0,-0.02734375,0.005859375,-0.021484375,0.0,0.0,0.0
32623083,25901,0,1.001953125,-0.0234375,0.009765625,-0.013671875,0.0,0.0,0.0
32624333,25902,0,1.001953125,-0.02734375,0.01171875,-0.015625,0.0,0.0,0.0
32625584,25903,0,1.005859375,-0.0234375,0.009765625,-0.013671875,0.0,0.0,0.0
32626835,25904,0,1.00390625,-0.03125,0.009765625,-0.021484375,0.0,0.0,0.0
32628085,25905,0,1.0,-0.02734375,0.017578125,-0.009765625,0.0,0.0,0.0
32629336,25906,0,1.005859375,-0.02734375,0.0078125,-0.01953125,0.0,0.0,0.0
32630587,25907,0,1.0078125,-0.0234375,0.013671875,-0.009765625,0.0,0.0,0.0
32631838,25908,0,1.001953125,-0.025390625,0.013671875,-0.01171875,0.0,0.0,0.0
32633090,25909,0,1.005859375,-0.025390625,0.01953125,-0.005859375,0.0,0.0,0.0
32634341,25910,0,1.0078125,-0.029296875,0.017578125,-0.01171875,0.0,0.0,0.0
32635592,25911,0,1.0,-0.02734375,0.013671875,-0.013671875,0.0,0.0,0.0
32636844,25912,0,1.0078125,-0.025390625,0.01171875,-0.013671875,0.0,0.0,0.0
32638095,25913,0,1.0078125,-0.029296875,0.021484375,-0.0078125,0.0,0.0,0.0
32639346,25914,0,1.00390625,-0.0234375,0.017578125,-0.005859375,0.0,0.0,0.0
32640597,25915,0,1.005859375,-0.01953125,0.015625,-0.00390625,0.0,0.0,0.0
32641849,25916,0,1.005859375,-0.0234375,0.01171875,-0.01171875,0.0,0.0,0.0
32643099,25917,0,1.00390625,-0.0234375,0.017578125,-0.005859375,0.0,0.0,0.0
32644351,25918,0,1.00390625,-0.025390625,0.021484375,-0.00390625,0.0,0.0,0.0
32645602,25919,0,0.998046875,-0.02734375,0.013671875,-0.013671875,0.0,0.0,0.0
32646854,25920,0,1.009765625,-0.0234375,0.021484375,-0.001953125,0.0,0.0,0.0
32648104,25921,0,1.001953125,-0.02734375,0.01953125,-0.0078125,0.0,0.0,0.0
32649354,25922,0,1.0078125,-0.029296875,0.017578125,-0.01171875,0.0,0.0,0.0
32650605,25923,0,0.998046875,-0.02734375,0.01171875,-0.015625,0.0,0.0,0.0
32651855,25924,0,1.00390625,-0.0234375,0.015625,-0.0078125,0.0,0.0,0.0
32653107,25925,0,1.001953125,-0.025390625,0.015625,-0.009765625,0.0,0.0,0.0
32654358,25926,0,1.0,-0.025390625,0.015625,-0.009765625,0.0,0.0,0.0
32655609,25927,0,1.00390625,-0.025390625,0.015625,-0.009765625,0.0,0.0,0.0
32656859,25928,0,1.0,-0.0234375,0.009765625,-0.013671875,0.0,0.0,0.0
32658111,25929,0,1.005859375,-0.0234375,0.015625,-0.0078125,0.0,0.0,0.0
32659362,25930,0,1.0,-0.025390625,0.0078125,-0.017578125,0.0,0.0,0.0
32660613,25931,0,1.025390625,0.03125,0.017578125,0.048828125,0.0,0.0,0.0
32661865,25932,0,1.005859375,0.068359375,0.052734375,0.12109375,0.0,0.0,0.0
32663115,25933,0,1.0078125,0.0859375,0.056640625,0.142578125,0.0,0.0,0.0
32664365,25934,0,0.9921875,0.05859375,0.052734375,0.111328125,0.0,0.0,0.0
32665617,25935,0,1.013671875,0.00390625,0.029296875,0.033203125,0.0,0.0,0.0
32666867,25936,0,0.990234375,-0.033203125,0.025390625,-0.0078125,0.0,0.0,0.0
32668118,25937,0,1.001953125,-0.0703125,-0.001953125,-0.072265625,0.0,0.0,0.0
32669369,25938,0,1.00390625,-0.095703125,-0.0078125,-0.103515625,0.0,0.0,0.0
32670620,25939,0,1.009765625,-0.103515625,-0.015625,-0.119140625,0.0,0.0,0.0
32671871,25940,0,1.0,-0.091796875,-0.017578125,-0.109375,0.0,0.0,0.0
32673123,25941,0,1.00390625,-0.08203125,-0.005859375,-0.087890625,0.0,0.0,0.0
32674374,25942,0,1.0,-0.0546875,0.0,-0.0546875,0.0,0.0,0.0
32675624,25943,0,0.99609375,-0.041015625,0.01171875,-0.029296875,0.0,0.0,0.0
32676875,25944,0,0.998046875,-0.015625,0.017578125,0.001953125,0.0,0.0,0.0
32678125,25945,0,1.009765625,-0.00390625,0.0234375,0.01953125,0.0,0.0,0.0
32679375,25946,0,1.005859375,0.0,0.02734375,0.02734375,0.0,0.0,0.0
32680626,25947,0,0.998046875,-0.00390625,0.021484375,0.017578125,0.0,0.0,0.0
32681877,25948,0,1.009765625,-0.01171875,0.025390625,0.013671875,0.0,0.0,0.0
32683129,25949,0,1.00390625,-0.021484375,0.01953125,-0.001953125,0.0,0.0,0.0
32684380,25950,0,1.001953125,-0.025390625,0.017578125,-0.0078125,0.0,0.0,0.0
32685630,25951,0,0.998046875,-0.03515625,0.013671875,-0.021484375,0.0,0.0,0.0
32686881,25952,0,0.998046875,-0.03515625,0.013671875,-0.021484375,0.0,0.0,0.0
32688133,25953,0,1.001953125,-0.041015625,0.01953125,-0.021484375,0.0,0.0,0.0
32689384,25954,0,1.009765625,-0.041015625,0.013671875,-0.02734375,0.0,0.0,0.0
32690634,25955,0,1.001953125,-0.037109375,0.01171875,-0.025390625,0.0,0.0,0.0
32691886,25956,0,1.005859375,-0.03125,0.013671875,-0.017578125,0.0,0.0,0.0
32693136,25957,0,1.001953125,-0.025390625,0.017578125,-0.0078125,0.0,0.0,0.0
32694386,25958,0,1.001953125,-0.025390625,0.01171875,-0.013671875,0.0,0.0,0.0
32695638,25959,0,1.001953125,-0.017578125,0.01171875,-0.005859375,0.0,0.0,6.857307794143809e+22
32698139,25961,0,1.0078125,-0.021484375,0.015625,-0.005859375,0.0,0.0,0.0
32699391,25962,0,1.001953125,-0.025390625,0.015625,-0.009765625,0.0,0.0,0.0
32700641,25963,0,0.99609375,-0.0234375,0.01171875,-0.01171875,0.0,0.0,0.0
32701892,25964,0,0.994140625,-0.03125,0.01171875,-0.01953125,0.0,0.0,0.0
32703142,25965,0,1.005859375,-0.029296875,0.017578125,-0.01171875,0.0,0.0,0.0
32704393,25966,0,1.01171875,-0.029296875,0.017578125,-0.01171875,0.0,0.0,0.0
32705645,25967,0,1.00390625,-0.02734375,0.015625,-0.01171875,0.0,0.0,0.0
32706895,25968,0,1.005859375,-0.029296875,0.009765625,-0.01953125,0.0,0.0,0.0
32708147,25969,0,1.0,-0.02734375,0.013671875,-0.013671875,0.0,0.0,0.0
32709397,25970,0,1.009765625,-0.0234375,0.013671875,-0.009765625,0.0,0.0,0.0
32710649,25971,0,1.001953125,-0.021484375,0.01953125,-0.001953125,0.0,0.0,0.0
32711899,25972,0,1.00390625,-0.02734375,0.021484375,-0.005859375,0.0,0.0,0.0
32713149,25973,0,1.0,-0.029296875,0.021484375,-0.0078125,0.0,0.0,0.0
32714399,25974,0,1.005859375,-0.025390625,0.013671875,-0.01171875,0.0,0.0,0.0
32715650,25975,0,0.998046875,-0.0234375,0.0078125,-0.015625,0.0,0.0,0.0
32716902,25976,0,1.005859375,-0.02734375,0.01171875,-0.015625,0.0,0.0,0.0
32718153,25977,0,1.00390625,-0.025390625,0.013671875,-0.01171875,0.0,0.0,0.0
32719404,25978,0,1.009765625,-0.02734375,0.015625,-0.01171875,0.0,0.0,0.0
32720654,25979,0,1.005859375,-0.03125,0.0234375,-0.0078125,0.0,0.0,0.0
32721904,25980,0,1.005859375,-0.01953125,0.01953125,0.0,0.0,0.0,0.0
32723155,25981,0,1.001953125,-0.02734375,0.001953125,-0.025390625,0.0,0.0,0.0
32724407,25982,0,0.998046875,-0.025390625,0.013671875,-0.01171875,0.0,0.0,0.0
32725657,25983,0,1.005859375,-0.03125,0.013671875,-0.017578125,0.0,0.0,0.0
32726909,25984,0,1.005859375,-0.025390625,0.01171875,-0.013671875,0.0,0.0,0.0
32728159,25985,0,1.0078125,-0.01953125,0.009765625,-0.009765625,0.0,0.0,0.0
32729409,25986,0,1.0,-0.025390625,0.015625,-0.009765625,0.0,0.0,0.0
32730661,25987,0,1.001953125,-0.029296875,0.01953125,-0.009765625,0.0,0.0,0.0
32731911,25988,0,1.00390625,-0.0234375,0.009765625,-0.013671875,0.0,0.0,0.0
32733161,25989,0,1.005859375,-0.02734375,0.013671875,-0.013671875,0.0,0.0,0.0
32734411,25990,0,1.0078125,-0.025390625,0.015625,-0.009765625,0.0,0.0,0.0
32735663,25991,0,1.00390625,-0.0234375,0.01171875,-0.01171875,0.0,0.0,0.0
32736913,25992,0,1.00390625,-0.025390625,0.01171875,-0.013671875,0.0,0.0,0.0
32738164,25993,0,0.998046875,-0.025390625,0.015625,-0.009765625,0.0,0.0,0.0
32739415,25994,0,1.0,-0.02734375,0.013671875,-0.013671875,0.0,0.0,0.0
32740666,25995,0,1.005859375,-0.0234375,0.009765625,-0.013671875,0.0,0.0,0.0
32741916,25996,0,1.00390625,-0.02734375,0.015625,-0.01171875,0.0,0.0,0.0
32743167,25997,0,1.005859375,-0.025390625,0.005859375,-0.01953125,0.0,0.0,0.0
32744417,25998,0,1.00390625,-0.0234375,0.015625,-0.0078125,0.0,0.0,0.0
32745668,25999,0,1.00390625,-0.02734375,0.015625,-0.01171875,0.0,0.0,0.0
32746920,26000,0,1.001953125,-0.025390625,0.009765625,-0.015625,0.0,0.0,0.0
32748171,26001,0,1.0,-0.025390625,0.009765625,-0.015625,0.0,0.0,0.0
32749421,26002,0,0.99609375,-0.0234375,0.01953125,-0.00390625,0.0,0.0,0.0
32750672,26003,0,1.0,-0.025390625,0.013671875,-0.01171875,0.0,0.0,0.0
32751924,26004,0,0.994140625,-0.02734375,0.013671875,-0.013671875,0.0,0.0,0.0
32753174,26005,0,0.99609375,-0.03125,0.009765625,-0.021484375,0.0,0.0,0.0
32754425,26006,0,1.01171875,-0.02734375,0.01171875,-0.015625,0.0,0.0,0.0
32755677,26007,0,0.998046875,-0.02734375,0.013671875,-0.013671875,0.0,0.0,0.0
32756927,26008,0,1.01171875,-0.02734375,0.015625,-0.01171875,0.0,0.0,0.0
32758177,26009,0,0.998046875,-0.03125,0.017578125,-0.013671875,0.0,0.0,0.0
32759429,26010,0,1.005859375,-0.033203125,0.01953125,-0.013671875,0.0,0.0,0.0
32760679,26011,0,1.005859375,-0.02734375,0.015625,-0.01171875,0.0,0.0,0.0
32761931,26012,0,1.0,-0.02734375,0.01953125,-0.0078125,0.0,0.0,0.0
32763181,26013,0,1.001953125,-0.02734375,0.017578125,-0.009765625,0.0,0.0,0.0
32764431,26014,0,1.001953125,-0.01953125,0.015625,-0.00390625,0.0,0.0,0.0
32765683,26015,0,1.0,-0.0234375,0.017578125,-0.005859375,0.0,0.0,0.0
32766933,26016,0,1.005859375,-0.017578125,0.021484375,0.00390625,0.0,0.0,0.0
32768183,26017,0,1.0,-0.021484375,0.01953125,-0.001953125,0.0,0.0,0.0
32769434,26018,0,1.00390625,-0.01953125,0.021484375,0.001953125,0.0,0.0,0.0
32770685,26019,0,1.0078125,-0.025390625,0.015625,-0.009765625,0.0,0.0,0.0
32771936,26020,0,1.009765625,-0.0234375,0.01171875,-0.01171875,0.0,0.0,0.0
32773186,26021,0,1.005859375,-0.0234375,0.021484375,-0.001953125,0.0,0.0,0.0
32774437,26022,0,1.001953125,-0.02734375,0.01953125,-0.0078125,0.0,0.0,0.0
32775687,26023,0,1.001953125,-0.0234375,0.005859375,-0.017578125,0.0,0.0,0.0
32776937,26024,0,1.001953125,-0.021484375,0.01171875,-0.009765625,0.0,0.0,0.0
32778188,26025,0,1.005859375,-0.025390625,0.009765625,-0.015625,0.0,0.0,0.0
32779440,26026,0,1.0078125,-0.02734375,0.013671875,-0.013671875,0.0,0.0,0.0
32780690,26027,0,1.005859375,-0.02734375,0.017578125,-0.009765625,0.0,0.0,0.0
32781942,26028,0,1.015625,-0.03125,0.009765625,-0.021484375,0.0,0.0,0.0
32783193,26029,0,1.005859375,-0.029296875,0.009765625,-0.01953125,0.0,0.0,0.0
32784445,26030,0,0.99609375,-0.0234375,0.0078125,-0.015625,0.0,0.0,0.0
32785695,26031,0,1.00390625,-0.01953125,0.01953125,0.0,0.0,0.0,0.0
32786947,26032,0,1.00390625,-0.025390625,0.017578125,-0.0078125,0.0,0.0,0.0
32788198,26033,0,1.005859375,-0.017578125,0.01953125,0.001953125,0.0,0.0,0.0
32789450,26034,0,1.0078125,-0.0234375,0.01953125,-0.00390625,0.0,0.0,0.0
32790700,26035,0,1.0078125,-0.0234375,0.021484375,-0.001953125,0.0,0.0,0.0
32791952,26036,0,1.005859375,-0.017578125,0.021484375,0.00390625,0.0,0.0,0.0
32793203,26037,0,1.001953125,-0.0234375,0.015625,-0.0078125,0.0,0.0,0.0
32794454,26038,0,1.00390625,-0.01953125,0.01171875,-0.0078125,0.0,0.0,0.0
32795705,26039,0,1.0078125,-0.02734375,0.013671875,-0.013671875,0.0,0.0,0.0
32796957,26040,0,1.001953125,-0.029296875,0.009765625,-0.01953125,0.0,0.0,0.0
32798207,26041,0,1.005859375,-0.03125,0.013671875,-0.017578125,0.0,0.0,0.0
32799459,26042,0,1.0078125,-0.02734375,0.01171875,-0.015625,0.0,0.0,0.0
32800709,26043,0,1.001953125,-0.033203125,0.013671875,-0.01953125,0.0,0.0,0.0
32801959,26044,0,1.005859375,-0.0234375,0.015625,-0.0078125,0.0,0.0,0.0
32803209,26045,0,1.00390625,-0.025390625,0.017578125,-0.0078125,0.0,0.0,0.0
32804459,26046,0,1.0,-0.025390625,0.021484375,-0.00390625,0.0,0.0,0.0
32805711,26047,0,1.001953125,-0.025390625,0.013671875,-0.01171875,0.0,0.0,0.0
32806961,26048,0,1.001953125,-0.03125,0.013671875,-0.017578125,0.0,0.0,0.0
32808213,26049,0,1.009765625,-0.025390625,0.01953125,-0.005859375,0.0,0.0,0.0
32809464,26050,0,1.0078125,-0.0234375,0.017578125,-0.005859375,0.0,0.0,0.0
32810715,26051,0,1.00390625,-0.025390625,0.013671875,-0.01171875,0.0,0.0,0.0
32811966,26052,0,1.015625,-0.02734375,0.01171875,-0.015625,0.0,0.0,0.0
32813216,26053,0,1.001953125,-0.0234375,0.021484375,-0.001953125,0.0,0.0,0.0
32814467,26054,0,1.0,-0.02734375,0.01953125,-0.0078125,0.0,0.0,0.0
32815718,26055,0,1.005859375,-0.025390625,0.013671875,-0.01171875,0.0,0.0,0.0
32816968,26056,0,1.0,-0.02734375,0.013671875,-0.013671875,0.0,0.0,0.0
32818219,26057,0,1.005859375,-0.029296875,0.013671875,-0.015625,0.0,0.0,0.0
32819470,26058,0,1.00390625,-0.02734375,0.013671875,-0.013671875,0.0,0.0,0.0
32820721,26059,0,1.00390625,-0.02734375,0.013671875,-0.013671875,0.0,0.0,0.0
32821971,26060,0,1.0,-0.03125,0.013671875,-0.017578125,0.0,0.0,0.0
32823223,26061,0,1.005859375,-0.03125,0.015625,-0.015625,0.0,0.0,0.0
32824473,26062,0,0.99609375,-0.02734375,0.013671875,-0.013671875,0.0,0.0,0.0
32825723,26063,0,1.005859375,-0.02734375,0.013671875,-0.013671875,0.0,0.0,0.0
32826975,26064,0,1.0078125,-0.02734375,0.017578125,-0.009765625,0.0,0.0,0.0
32828226,26065,0,1.009765625,-0.0234375,0.015625,-0.0078125,0.0,0.0,0.0
32829476,26066,0,1.009765625,-0.01953125,0.01953125,0.0,0.0,0.0,0.0
32830728,26067,0,1.0,-0.0234375,0.017578125,-0.005859375,0.0,0.0,0.0
32831979,26068,0,1.0078125,-0.029296875,0.013671875,-0.015625,0.0,0.0,0.0
32833229,26069,0,1.0,-0.029296875,0.013671875,-0.015625,0.0,0.0,0.0
32834481,26070,0,1.0,-0.029296875,0.0078125,-0.021484375,0.0,0.0,0.0
32835731,26071,0,1.005859375,-0.0234375,0.0078125,-0.015625,0.0,0.0,0.0
32836981,26072,0,1.005859375,-0.029296875,0.01953125,-0.009765625,0.0,0.0,0.0
32838232,26073,0,1.0,-0.02734375,0.015625,-0.01171875,0.0,0.0,0.0
32839483,26074,0,1.001953125,-0.025390625,0.013671875,-0.01171875,0.0,0.0,0.0
32840734,26075,0,1.005859375,-0.03125,0.01171875,-0.01953125,0.0,0.0,0.0
32841986,26076,0,1.0,-0.025390625,0.01171875,-0.013671875,0.0,0.0,0.0
32843236,26077,0,1.001953125,-0.0234375,0.015625,-0.0078125,0.0,0.0,0.0
32844486,26078,0,1.0078125,-0.021484375,0.013671875,-0.0078125,0.0,0.0,0.0
32845737,26079,0,0.998046875,-0.02734375,0.013671875,-0.013671875,0.0,0.0,0.0
32846987,26080,0,1.0,-0.025390625,0.017578125,-0.0078125,0.0,0.0,0.0
32848238,26081,0,1.0078125,-0.01953125,0.015625,-0.00390625,0.0,0.0,0.0
32849489,26082,0,1.001953125,-0.0234375,0.021484375,-0.001953125,0.0,0.0,0.0
32850740,26083,0,0.998046875,-0.025390625,0.021484375,-0.00390625,0.0,0.0,0.0
32851991,26084,0,1.005859375,-0.025390625,0.009765625,-0.015625,0.0,0.0,0.0
32853241,26085,0,1.00390625,-0.03125,0.01171875,-0.01953125,0.0,0.0,0.0
32854492,26086,0,1.0078125,-0.025390625,0.021484375,-0.00390625,0.0,0.0,0.0
32855744,26087,0,0.998046875,-0.0234375,0.017578125,-0.005859375,0.0,0.0,0.0
32856994,26088,0,1.0,-0.025390625,0.017578125,-0.0078125,0.0,0.0,0.0
32858245,26089,0,0.99609375,-0.021484375,0.017578125,-0.00390625,0.0,0.0,0.0
32859496,26090,0,1.01171875,-0.02734375,0.013671875,-0.013671875,0.0,0.0,0.0
32860747,26091,0,1.0078125,-0.021484375,0.017578125,-0.00390625,0.0,0.0,0.0
32861998,26092,0,1.001953125,-0.025390625,0.015625,-0.009765625,0.0,0.0,0.0
32863249,26093,0,0.9921875,-0.02734375,0.01171875,-0.015625,0.0,0.0,0.0
32864499,26094,0,1.00390625,-0.0234375,0.013671875,-0.009765625,0.0,0.0,0.0
32865751,26095,0,0.99609375,-0.025390625,0.017578125,-0.0078125,0.0,0.0,0.0
32867002,26096,0,1.0078125,-0.025390625,0.015625,-0.009765625,0.0,0.0,0.0
32868253,26097,0,1.00390625,-0.029296875,0.021484375,-0.0078125,0.0,0.0,0.0
32869503,26098,0,1.00390625,-0.02734375,0.017578125,-0.009765625,0.0,0.0,0.0
32870755,26099,0,1.005859375,-0.025390625,0.021484375,-0.00390625,0.0,0.0,0.0
32872005,26100,0,1.005859375,-0.029296875,0.021484375,-0.0078125,0.0,0.0,0.0
32873256,26101,0,0.998046875,-0.029296875,0.017578125,-0.01171875,0.0,0.0,0.0
32874506,26102,0,0.99609375,-0.03125,0.013671875,-0.017578125,0.0,0.0,0.0
32875757,26103,0,1.0,-0.029296875,0.01171875,-0.017578125,0.0,0.0,0.0
32877008,26104,0,1.0,-0.03125,0.01953125,-0.01171875,0.0,0.0,0.0
32878258,26105,0,1.005859375,-0.029296875,0.01171875,-0.017578125,0.0,0.0,0.0
32879508,26106,0,1.009765625,-0.025390625,0.01171875,-0.013671875,0.0,0.0,0.0
32880759,26107,0,1.0,-0.025390625,0.01953125,-0.005859375,0.0,0.0,0.0
32882009,26108,0,1.005859375,-0.03125,0.013671875,-0.017578125,0.0,0.0,0.0
32883259,26109,0,0.998046875,-0.029296875,0.015625,-0.013671875,0.0,0.0,0.0
32884510,26110,0,1.001953125,-0.021484375,0.015625,-0.005859375,0.0,0.0,0.0
32885762,26111,0,1.001953125,-0.02734375,0.01171875,-0.015625,0.0,0.0,0.0
32887012,26112,0,1.0078125,-0.021484375,0.021484375,0.0,0.0,0.0,0.0
32888271,26113,0,1.001953125,-0.029296875,0.015625,-0.013671875,0.0,0.0,0.0
32889521,26114,0,1.001953125,-0.02734375,0.015625,-0.01171875,0.0,0.0,0.0
32890773,26115,0,1.017578125,-0.02734375,0.017578125,-0.009765625,0.0,0.0,0.0
32892023,26116,0,0.998046875,-0.02734375,0.015625,-0.01171875,0.0,0.0,0.0
32893274,26117,0,1.00390625,-0.025390625,0.01953125,-0.005859375,0.0,0.0,0.0
32894525,26118,0,1.005859375,-0.02734375,0.015625,-0.01171875,0.0,0.0,0.0
32895776,26119,0,1.001953125,-0.02734375,0.017578125,-0.009765625,0.0,0.0,0.0
32897026,26120,0,1.001953125,-0.025390625,0.017578125,-0.0078125,0.0,0.0,0.0
32898276,26121,0,1.00390625,-0.02734375,0.009765625,-0.017578125,0.0,0.0,0.0
32899527,26122,0,1.005859375,-0.025390625,0.013671875,-0.01171875,0.0,0.0,0.0
32900778,26123,0,1.005859375,-0.02734375,0.017578125,-0.009765625,0.0,0.0,0.0
32902029,26124,0,0.99609375,-0.02734375,0.01171875,-0.015625,0.0,0.0,0.0
32903280,26125,0,0.998046875,-0.025390625,0.017578125,-0.0078125,0.0,0.0,0.0
32904531,26126,0,1.005859375,-0.02734375,0.017578125,-0.009765625,0.0,0.0,0.0
32905783,26127,0,0.998046875,-0.029296875,0.015625,-0.013671875,0.0,0.0,0.0
32907034,26128,0,0.998046875,-0.025390625,0.013671875,-0.01171875,0.0,0.0,0.0
32908286,26129,0,1.005859375,-0.0234375,0.013671875,-0.009765625,0.0,0.0,0.0
32909537,26130,0,1.0078125,-0.033203125,0.017578125,-0.015625,0.0,0.0,0.0
32910789,26131,0,1.001953125,-0.025390625,0.009765625,-0.015625,0.0,0.0,0.0
32912039,26132,0,1.0,-0.0234375,0.01953125,-0.00390625,0.0,0.0,0.0
32913289,26133,0,0.99609375,-0.021484375,0.015625,-0.005859375,0.0,0.0,0.0
32914541,26134,0,0.998046875,-0.02734375,0.015625,-0.01171875,0.0,0.0,0.0
32915792,26135,0,1.013671875,-0.02734375,0.021484375,-0.005859375,0.0,0.0,0.0
32917044,26136,0,1.005859375,-0.0234375,0.01171875,-0.01171875,0.0,0.0,0.0
32918294,26137,0,1.0,-0.02734375,0.0078125,-0.01953125,0.0,0.0,0.0
32919544,26138,0,0.998046875,-0.025390625,0.015625,-0.009765625,0.0,0.0,0.0
32920795,26139,0,1.001953125,-0.0234375,0.017578125,-0.005859375,0.0,0.0,0.0
32922045,26140,0,1.0,-0.02734375,0.015625,-0.01171875,0.0,0.0,0.0
32923295,26141,0,1.01171875,-0.02734375,0.009765625,-0.017578125,0.0,0.0,0.0
32924546,26142,0,1.00390625,-0.029296875,0.015625,-0.013671875,0.0,0.0,0.0
32925797,26143,0,1.00390625,-0.025390625,0.013671875,-0.01171875,0.0,0.0,0.0
32927048,26144,0,1.00390625,-0.0234375,0.017578125,-0.005859375,0.0,0.0,0.0
32928299,26145,0,1.0078125,-0.03125,0.017578125,-0.013671875,0.0,0.0,0.0
32929550,26146,0,1.00390625,-0.021484375,0.021484375,0.0,0.0,0.0,0.0
32930800,26147,0,1.001953125,-0.0234375,0.01953125,-0.00390625,0.0,0.0,0.0
32932052,26148,0,1.00390625,-0.025390625,0.013671875,-0.01171875,0.0,0.0,0.0
32933303,26149,0,1.005859375,-0.02734375,0.01953125,-0.0078125,0.0,0.0,0.0
32934554,26150,0,1.0078125,-0.025390625,0.01953125,-0.005859375,0.0,0.0,0.0
32935805,26151,0,1.001953125,-0.029296875,0.021484375,-0.0078125,0.0,0.0,0.0
32937057,26152,0,0.994140625,-0.02734375,0.015625,-0.01171875,0.0,0.0,0.0
32938308,26153,0,1.005859375,-0.01953125,0.015625,-0.00390625,0.0,0.0,0.0
32939560,26154,0,1.0078125,-0.021484375,0.009765625,-0.01171875,0.0,0.0,0.0
32940811,26155,0,1.0,-0.029296875,0.013671875,-0.015625,0.0,0.0,0.0
32942063,26156,0,1.009765625,-0.0234375,0.013671875,-0.009765625,0.0,0.0,0.0
32943314,26157,0,1.005859375,-0.01953125,0.015625,-0.00390625,0.0,0.0,0.0
32944565,26158,0,1.0078125,-0.021484375,0.013671875,-0.0078125,0.0,0.0,0.0
32945816,26159,0,0.994140625,-0.02734375,0.01171875,-0.015625,0.0,0.0,0.0
32947066,26160,0,0.998046875,-0.0234375,0.017578125,-0.005859375,0.0,0.0,0.0
32948318,26161,0,1.001953125,-0.0234375,0.017578125,-0.005859375,0.0,0.0,0.0
32949569,26162,0,1.0078125,-0.0234375,0.01953125,-0.00390625,0.0,0.0,0.0
32950819,26163,0,1.005859375,-0.02734375,0.01953125,-0.0078125,0.0,0.0,0.0
32952070,26164,0,1.0,-0.0234375,0.01953125,-0.00390625,0.0,0.0,0.0
32953321,26165,0,1.005859375,-0.02734375,0.013671875,-0.013671875,0.0,0.0,0.0
32954572,26166,0,0.998046875,-0.025390625,0.015625,-0.009765625,0.0,0.0,0.0
32955823,26167,0,1.005859375,-0.0234375,0.013671875,-0.009765625,0.0,0.0,0.0
32957074,26168,0,1.005859375,-0.025390625,0.01171875,-0.013671875,0.0,0.0,0.0
32958325,26169,0,1.001953125,-0.029296875,0.009765625,-0.01953125,0.0,0.0,0.0
32959575,26170,0,1.0078125,-0.02734375,0.015625,-0.01171875,0.0,0.0,0.0
32960825,26171,0,1.001953125,-0.025390625,0.015625,-0.009765625,0.0,0.0,0.0
32962076,26172,0,1.005859375,-0.029296875,0.015625,-0.013671875,0.0,0.0,0.0
32963326,26173,0,1.001953125,-0.025390625,0.025390625,0.0,0.0,0.0,0.0
32964577,26174,0,1.009765625,-0.01953125,0.009765625,-0.009765625,0.0,0.0,0.0
32965828,26175,0,1.005859375,-0.02734375,0.013671875,-0.013671875,0.0,0.0,0.0
32967078,26176,0,1.015625,-0.0234375,0.017578125,-0.005859375,0.0,0.0,0.0
32968329,26177,0,1.005859375,-0.029296875,0.025390625,-0.00390625,0.0,0.0,0.0
32969581,26178,0,1.0078125,-0.0234375,0.013671875,-0.009765625,0.0,0.0,0.0
32970833,26179,0,1.00390625,-0.0234375,0.01953125,-0.00390625,0.0,0.0,0.0
32972083,26180,0,1.0,-0.029296875,0.013671875,-0.015625,0.0,0.0,0.0
32973333,26181,0,1.005859375,-0.02734375,0.009765625,-0.017578125,0.0,0.0,0.0
32974584,26182,0,1.005859375,-0.025390625,0.013671875,-0.01171875,0.0,0.0,0.0
32975835,26183,0,1.0,-0.02734375,0.013671875,-0.013671875,0.0,0.0,0.0
32977085,26184,0,1.005859375,-0.0234375,0.0078125,-0.015625,0.0,0.0,0.0
32978336,26185,0,1.001953125,-0.025390625,0.017578125,-0.0078125,0.0,0.0,0.0
32979587,26186,0,1.0,-0.025390625,0.015625,-0.009765625,0.0,0.0,0.0
32980838,26187,0,1.005859375,-0.0234375,0.01171875,-0.01171875,0.0,0.0,0.0
32982090,26188,0,1.005859375,-0.0234375,0.021484375,-0.001953125,0.0,0.0,0.0
32983341,26189,0,1.0078125,-0.01953125,0.015625,-0.00390625,0.0,0.0,0.0
32984592,26190,0,1.005859375,-0.029296875,0.015625,-0.013671875,0.0,0.0,0.0
32985844,26191,0,0.994140625,-0.021484375,0.01953125,-0.001953125,0.0,0.0,0.0
32987095,26192,0,1.0,-0.025390625,0.0234375,-0.001953125,0.0,0.0,0.0
32988346,26193,0,1.001953125,-0.017578125,0.01171875,-0.005859375,0.0,0.0,0.0
32989597,26194,0,1.00390625,-0.03125,0.01953125,-0.01171875,0.0,0.0,0.0
32990849,26195,0,1.0,-0.029296875,0.017578125,-0.01171875,0.0,0.0,0.0
32992099,26196,0,1.005859375,-0.029296875,0.017578125,-0.01171875,0.0,0.0,0.0
32993351,26197,0,1.001953125,-0.025390625,0.015625,-0.009765625,0.0,0.0,0.0
32994602,26198,0,1.01953125,-0.02734375,0.021484375,-0.005859375,0.0,0.0,0.0
32995854,26199,0,1.005859375,-0.025390625,0.013671875,-0.01171875,0.0,0.0,0.0
32997104,26200,0,0.990234375,-0.021484375,0.025390625,0.00390625,0.0,0.0,0.0
32998354,26201,0,1.00390625,-0.0234375,0.021484375,-0.001953125,0.0,0.0,0.0
32999605,26202,0,1.005859375,-0.0234375,0.013671875,-0.009765625,0.0,0.0,0.0
33000855,26203,0,1.009765625,-0.01953125,0.01953125,0.0,0.0,0.0,0.0
33002107,26204,0,1.005859375,-0.025390625,0.0234375,-0.001953125,0.0,0.0,0.0
33003358,26205,0,0.998046875,-0.021484375,0.013671875,-0.0078125,0.0,0.0,0.0
33004609,26206,0,1.005859375,-0.025390625,0.01953125,-0.005859375,0.0,0.0,0.0
33005859,26207,0,1.005859375,-0.025390625,0.017578125,-0.0078125,0.0,0.0,0.0
33007111,26208,0,1.0,-0.029296875,0.013671875,-0.015625,0.0,0.0,0.0
33008362,26209,0,1.0078125,-0.021484375,0.01953125,-0.001953125,0.0,0.0,0.0
33009613,26210,0,1.0078125,-0.0234375,0.013671875,-0.009765625,0.0,0.0,0.0
33010865,26211,0,1.00390625,-0.0234375,0.01171875,-0.01171875,0.0,0.0,0.0
33012115,26212,0,1.005859375,-0.02734375,0.01953125,-0.0078125,0.0,0.0,0.0
33013365,26213,0,1.0078125,-0.0234375,0.01953125,-0.00390625,0.0,0.0,0.0
33014617,26214,0,1.005859375,-0.02734375,0.021484375,-0.005859375,0.0,0.0,0.0
33015867,26215,0,1.005859375,-0.033203125,0.017578125,-0.015625,0.0,0.0,0.0
33017118,26216,0,1.00390625,-0.03125,0.013671875,-0.017578125,0.0,0.0,0.0
33018369,26217,0,1.001953125,-0.029296875,0.009765625,-0.01953125,0.0,0.0,0.0
33019620,26218,0,1.0,-0.02734375,0.015625,-0.01171875,0.0,0.0,0.0
33020871,26219,0,1.0078125,-0.029296875,0.009765625,-0.01953125,0.0,0.0,0.0
33022123,26220,0,1.013671875,-0.0234375,0.021484375,-0.001953125,0.0,0.0,0.0
33023374,26221,0,1.0,-0.0234375,0.01953125,-0.00390625,0.0,0.0,0.0
33024624,26222,0,0.998046875,-0.02734375,0.017578125,-0.009765625,0.0,0.0,0.0
33025875,26223,0,1.001953125,-0.025390625,0.01953125,-0.005859375,0.0,0.0,0.0
33027125,26224,0,1.005859375,-0.029296875,0.017578125,-0.01171875,0.0,0.0,0.0
33028375,26225,0,1.0078125,-0.025390625,0.01171875,-0.013671875,0.0,0.0,0.0
33029626,26226,0,1.009765625,-0.03125,0.0078125,-0.0234375,0.0,0.0,0.0
33030877,26227,0,1.001953125,-0.0234375,0.01171875,-0.01171875,0.0,0.0,0.0
33032129,26228,0,1.0078125,-0.02734375,0.013671875,-0.013671875,0.0,0.0,0.0
33033380,26229,0,0.99609375,-0.02734375,0.009765625,-0.017578125,0.0,0.0,0.0
33034630,26230,0,0.998046875,-0.03125,0.013671875,-0.017578125,0.0,0.0,0.0
33035881,26231,0,1.001953125,-0.0234375,0.013671875,-0.009765625,0.0,0.0,0.0
33037133,26232,0,1.0,-0.033203125,0.0078125,-0.025390625,0.0,0.0,0.0
33038384,26233,0,1.0078125,-0.03125,0.01171875,-0.01953125,0.0,0.0,0.0
33039634,26234,0,1.005859375,-0.02734375,0.013671875,-0.013671875,0.0,0.0,0.0
33040886,26235,0,1.0078125,-0.029296875,0.015625,-0.013671875,0.0,0.0,0.0
33042136,26236,0,1.001953125,-0.025390625,0.0078125,-0.017578125,0.0,0.0,0.0
33043386,26237,0,0.998046875,-0.02734375,0.01953125,-0.0078125,0.0,0.0,0.0
33044638,26238,0,0.994140625,-0.02734375,0.017578125,-0.009765625,0.0,0.0,0.0
33045888,26239,0,1.0078125,-0.02734375,0.0078125,-0.01953125,0.0,0.0,0.0
33047139,26240,0,1.001953125,-0.03125,0.009765625,-0.021484375,0.0,0.0,0.0
33048391,26241,0,0.998046875,-0.02734375,0.005859375,-0.021484375,0.0,0.0,0.0
33049641,26242,0,1.001953125,-0.025390625,0.0078125,-0.017578125,0.0,0.0,0.0
33050892,26243,0,1.0,-0.025390625,0.0234375,-0.001953125,0.0,0.0,0.0
33052142,26244,0,1.001953125,-0.02734375,0.013671875,-0.013671875,0.0,0.0,0.0
33053393,26245,0,0.998046875,-0.033203125,0.013671875,-0.01953125,0.0,0.0,0.0
33054645,26246,0,1.00390625,-0.02734375,0.013671875,-0.013671875,0.0,0.0,0.0
33055895,26247,0,1.0078125,-0.029296875,0.009765625,-0.01953125,0.0,0.0,0.0
33057147,26248,0,1.0078125,-0.02734375,0.013671875,-0.013671875,0.0,0.0,0.0
33058397,26249,0,1.00390625,-0.025390625,0.0078125,-0.017578125,0.0,0.0,0.0
33059649,26250,0,1.00390625,-0.0234375,0.009765625,-0.013671875,0.0,0.0,0.0
33060899,26251,0,1.0,-0.025390625,0.017578125,-0.0078125,0.0,0.0,0.0
33062149,26252,0,1.00390625,-0.025390625,0.017578125,-0.0078125,0.0,0.0,0.0
33063399,26253,0,1.00390625,-0.025390625,0.009765625,-0.015625,0.0,0.0,0.0
33064650,26254,0,1.001953125,-0.02734375,0.015625,-0.01171875,0.0,0.0,0.0
33065902,26255,0,1.00390625,-0.029296875,0.021484375,-0.0078125,0.0,0.0,0.0
33067153,26256,0,1.005859375,-0.02734375,0.015625,-0.01171875,0.0,0.0,0.0
33068404,26257,0,1.009765625,-0.0234375,0.005859375,-0.017578125,0.0,0.0,0.0
33069654,26258,0,1.001953125,-0.01953125,0.0078125,-0.01171875,0.0,0.0,0.0
33070904,26259,0,1.0,-0.03125,0.025390625,-0.005859375,0.0,0.0,0.0
33072155,26260,0,1.00390625,-0.029296875,0.015625,-0.013671875,0.0,0.0,0.0
33073407,26261,0,1.005859375,-0.029296875,0.013671875,-0.015625,0.0,0.0,0.0
33074657,26262,0,1.0078125,-0.0234375,0.01953125,-0.00390625,0.0,0.0,0.0
33075909,26263,0,1.009765625,-0.0234375,0.0078125,-0.015625,0.0,0.0,0.0
33077159,26264,0,1.0078125,-0.02734375,0.01171875,-0.015625,0.0,0.0,0.0
33078409,26265,0,1.0078125,-0.021484375,0.015625,-0.005859375,0.0,0.0,0.0
33079661,26266,0,1.005859375,-0.02734375,0.009765625,-0.017578125,0.0,0.0,0.0
33080911,26267,0,1.005859375,-0.021484375,0.015625,-0.005859375,0.0,0.0,0.0
33082161,26268,0,1.001953125,-0.02734375,0.017578125,-0.009765625,0.0,0.0,0.0
33083411,26269,0,1.0,-0.02734375,0.015625,-0.01171875,0.0,0.0,0.0
33084663,26270,0,1.00390625,-0.025390625,0.017578125,-0.0078125,0.0,0.0,0.0
33085913,26271,0,1.005859375,-0.02734375,0.013671875,-0.013671875,0.0,0.0,0.0
33087164,26272,0,1.001953125,-0.029296875,0.01953125,-0.009765625,0.0,0.0,0.0
33088415,26273,0,1.00390625,-0.025390625,0.017578125,-0.0078125,0.0,0.0,0.0
33089666,26274,0,1.0078125,-0.02734375,0.017578125,-0.009765625,0.0,0.0,0.0
33090916,26275,0,1.001953125,-0.02734375,0.013671875,-0.013671875,0.0,0.0,0.0
33092167,26276,0,0.998046875,-0.03125,0.013671875,-0.017578125,0.0,0.0,0.0
33093417,26277,0,1.001953125,-0.029296875,0.013671875,-0.015625,0.0,0.0,0.0
33094668,26278,0,0.998046875,-0.0234375,0.01171875,-0.01171875,0.0,0.0,0.0
33095920,26279,0,1.009765625,-0.02734375,0.01171875,-0.015625,0.0,0.0,0.0
33097171,26280,0,1.005859375,-0.029296875,0.01171875,-0.017578125,0.0,0.0,0.0
33098421,26281,0,1.0,-0.02734375,0.013671875,-0.013671875,0.0,0.0,0.0
33099672,26282,0,1.005859375,-0.029296875,0.005859375,-0.0234375,0.0,0.0,0.0
33100924,26283,0,0.998046875,-0.033203125,0.015625,-0.017578125,0.0,0.0,0.0
33102174,26284,0,1.00390625,-0.02734375,0.015625,-0.01171875,0.0,0.0,0.0
33103425,26285,0,1.01171875,-0.025390625,0.013671875,-0.01171875,0.0,0.0,0.0
33104677,26286,0,1.00390625,-0.025390625,0.0078125,-0.017578125,0.0,0.0,0.0
33105927,26287,0,0.994140625,-0.02734375,0.009765625,-0.017578125,0.0,0.0,0.0
33107177,26288,0,0.998046875,-0.029296875,0.017578125,-0.01171875,0.0,0.0,0.0
33108429,26289,0,1.01171875,-0.029296875,0.017578125,-0.01171875,0.0,0.0,0.0
33109679,26290,0,1.005859375,-0.029296875,0.01953125,-0.009765625,0.0,0.0,0.0
33110931,26291,0,1.001953125,-0.0234375,0.015625,-0.0078125,0.0,0.0,0.0
33112181,26292,0,1.009765625,-0.02734375,0.015625,-0.01171875,0.0,0.0,0.0
33113431,26293,0,1.001953125,-0.03125,0.013671875,-0.017578125,0.0,0.0,0.0
33114683,26294,0,1.0,-0.0234375,0.015625,-0.0078125,0.0,0.0,0.0
33115933,26295,0,1.001953125,-0.029296875,0.017578125,-0.01171875,0.0,0.0,0.0
33117183,26296,0,1.00390625,-0.029296875,0.015625,-0.013671875,0.0,0.0,0.0
33118434,26297,0,1.001953125,-0.02734375,0.01171875,-0.015625,0.0,0.0,0.0
33119685,26298,0,1.0078125,-0.0234375,0.015625,-0.0078125,0.0,0.0,0.0
33120936,26299,0,1.0078125,-0.0234375,0.013671875,-0.009765625,0.0,0.0,0.0
33122186,26300,0,1.001953125,-0.025390625,0.013671875,-0.01171875,0.0,0.0,0.0
33123437,26301,0,0.99609375,-0.02734375,0.01953125,-0.0078125,0.0,0.0,0.0
33124687,26302,0,1.00390625,-0.02734375,0.009765625,-0.017578125,0.0,0.0,0.0
33125937,26303,0,1.00390625,-0.02734375,0.013671875,-0.013671875,0.0,0.0,0.0
33127188,26304,0,1.001953125,-0.025390625,0.015625,-0.009765625,0.0,0.0,0.0
33128440,26305,0,1.00390625,-0.0234375,0.013671875,-0.009765625,0.0,0.0,0.0
33129690,26306,0,0.99609375,-0.025390625,0.009765625,-0.015625,0.0,0.0,0.0
33130942,26307,0,1.001953125,-0.025390625,0.01171875,-0.013671875,0.0,0.0,0.0
33132193,26308,0,1.00390625,-0.0234375,0.015625,-0.0078125,0.0,0.0,0.0
33133445,26309,0,1.00390625,-0.025390625,0.01171875,-0.013671875,0.0,0.0,0.0
33134695,26310,0,0.998046875,-0.025390625,0.009765625,-0.015625,0.0,0.0,0.0
33135947,26311,0,1.0,-0.02734375,0.017578125,-0.009765625,0.0,0.0,0.0
33137198,26312,0,1.009765625,-0.0234375,0.015625,-0.0078125,0.0,0.0,0.0
33138450,26313,0,1.005859375,-0.02734375,0.01953125,-0.0078125,0.0,0.0,0.0
33139700,26314,0,1.0078125,-0.021484375,0.017578125,-0.00390625,0.0,0.0,0.0
33140952,26315,0,1.005859375,-0.02734375,0.015625,-0.01171875,0.0,0.0,0.0
33142203,26316,0,1.00390625,-0.02734375,0.013671875,-0.013671875,0.0,0.0,0.0
33143454,26317,0,1.001953125,-0.029296875,0.015625,-0.013671875,0.0,0.0,0.0
33144705,26318,0,1.00390625,-0.025390625,0.013671875,-0.01171875,0.0,0.0,0.0
33145957,26319,0,1.00390625,-0.029296875,0.01953125,-0.009765625,0.0,0.0,0.0
33147207,26320,0,1.00390625,-0.0234375,0.01953125,-0.00390625,0.0,0.0,0.0
33148459,26321,0,1.005859375,-0.02734375,0.013671875,-0.013671875,0.0,0.0,0.0
33149709,26322,0,1.005859375,-0.025390625,0.015625,-0.009765625,0.0,0.0,0.0
33150959,26323,0,1.005859375,-0.02734375,0.009765625,-0.017578125,0.0,0.0,0.0
33152209,26324,0,0.998046875,-0.025390625,0.013671875,-0.01171875,0.0,0.0,0.0
33153459,26325,0,1.005859375,-0.01953125,0.017578125,-0.001953125,0.0,0.0,0.0
33154711,26326,0,1.0078125,-0.029296875,0.017578125,-0.01171875,0.0,0.0,0.0
33155961,26327,0,1.015625,-0.029296875,0.021484375,-0.0078125,0.0,0.0,0.0
33157213,26328,0,1.005859375,-0.021484375,0.0234375,0.001953125,0.0,0.0,0.0
33158464,26329,0,1.0,-0.029296875,0.01953125,-0.009765625,0.0,0.0,0.0
33159715,26330,0,1.005859375,-0.0234375,0.017578125,-0.005859375,0.0,0.0,0.0
33160966,26331,0,1.001953125,-0.029296875,0.013671875,-0.015625,0.0,0.0,0.0
33162216,26332,0,0.998046875,-0.025390625,0.015625,-0.009765625,0.0,0.0,0.0
33163467,26333,0,1.00390625,-0.02734375,0.01171875,-0.015625,0.0,0.0,0.0
33164718,26334,0,1.0078125,-0.02734375,0.01171875,-0.015625,0.0,0.0,0.0
33165968,26335,0,1.005859375,-0.02734375,0.015625,-0.01171875,0.0,0.0,0.0
33167219,26336,0,1.005859375,-0.02734375,0.017578125,-0.009765625,0.0,0.0,0.0
33168470,26337,0,1.005859375,-0.021484375,0.017578125,-0.00390625,0.0,0.0,0.0
33169721,26338,0,1.00390625,-0.02734375,0.013671875,-0.013671875,0.0,0.0,0.0
33170971,26339,0,1.0078125,-0.03125,0.013671875,-0.017578125,0.0,0.0,0.0
33172223,26340,0,1.0,-0.029296875,0.013671875,-0.015625,0.0,0.0,0.0
33173473,26341,0,1.0,-0.025390625,0.0078125,-0.017578125,0.0,0.0,0.0
33174723,26342,0,1.001953125,-0.017578125,0.021484375,0.00390625,0.0,0.0,0.0
33175975,26343,0,1.0,-0.021484375,0.00390625,-0.017578125,0.0,0.0,0.0
33177226,26344,0,1.0078125,-0.029296875,0.009765625,-0.01953125,0.0,0.0,0.0
33178476,26345,0,1.005859375,-0.02734375,0.017578125,-0.009765625,0.0,0.0,0.0
33179728,26346,0,1.015625,-0.0234375,0.015625,-0.0078125,0.0,0.0,0.0
33180979,26347,0,0.998046875,-0.0234375,0.02734375,0.00390625,0.0,0.0,0.0
33182229,26348,0,1.005859375,-0.029296875,0.015625,-0.013671875,0.0,0.0,0.0
33183481,26349,0,1.0,-0.025390625,0.01171875,-0.013671875,0.0,0.0,0.0
33184731,26350,0,1.001953125,-0.02734375,0.013671875,-0.013671875,0.0,0.0,0.0
