t_us,frame_id,sensor_id,accX,accY,accZ,acc_sum_YZ,magX,magY,magZ
65893174,52498,0,1.005859375,-0.029296875,0.017578125,-0.01171875,0.0,0.0,0.0
65894425,52499,0,1.005859375,-0.03125,0.017578125,-0.013671875,0.0,0.0,0.0
65895675,52500,0,1.001953125,-0.03125,0.01953125,-0.01171875,0.0,0.0,0.0
65896927,52501,0,1.001953125,-0.02734375,0.021484375,-0.005859375,0.0,0.0,0.0
65898178,52502,0,1.0,-0.033203125,0.017578125,-0.015625,0.0,0.0,0.0
65899430,52503,0,0.99609375,-0.033203125,0.021484375,-0.01171875,0.0,0.0,0.0
65900680,52504,0,1.0078125,-0.02734375,0.02734375,0.0,0.0,0.0,0.0
65901931,52505,0,1.009765625,-0.02734375,0.01953125,-0.0078125,0.0,0.0,0.0
65903181,52506,0,1.0078125,-0.029296875,0.025390625,-0.00390625,0.0,0.0,0.0
65904431,52507,0,1.015625,-0.03125,0.0234375,-0.0078125,0.0,0.0,0.0
65905683,52508,0,1.005859375,-0.03515625,0.01171875,-0.0234375,0.0,0.0,0.0
65906933,52509,0,1.00390625,-0.033203125,0.021484375,-0.01171875,0.0,0.0,0.0
65908183,52510,0,1.0078125,-0.03125,0.01953125,-0.01171875,0.0,0.0,0.0
65909434,52511,0,1.0078125,-0.029296875,0.015625,-0.013671875,0.0,0.0,0.0
65910685,52512,0,1.001953125,-0.029296875,0.017578125,-0.01171875,0.0,0.0,0.0
65911936,52513,0,1.0,-0.029296875,0.0234375,-0.005859375,0.0,0.0,0.0
65913186,52514,0,1.005859375,-0.03125,0.017578125,-0.013671875,0.0,0.0,0.0
65914437,52515,0,1.001953125,-0.033203125,0.01953125,-0.013671875,0.0,0.0,0.0
65915687,52516,0,0.99609375,-0.029296875,0.015625,-0.013671875,0.0,0.0,0.0
65916937,52517,0,1.00390625,-0.03125,0.017578125,-0.013671875,0.0,0.0,0.0
65918188,52518,0,1.0,-0.033203125,0.01953125,-0.013671875,0.0,0.0,0.0
65919440,52519,0,1.005859375,-0.03125,0.017578125,-0.013671875,0.0,0.0,0.0
65920690,52520,0,1.005859375,-0.03515625,0.015625,-0.01953125,0.0,0.0,0.0
65921942,52521,0,1.0,-0.033203125,0.015625,-0.017578125,0.0,0.0,0.0
65923193,52522,0,1.005859375,-0.03125,0.013671875,-0.017578125,0.0,0.0,0.0
65924445,52523,0,1.0,-0.02734375,0.017578125,-0.009765625,0.0,0.0,0.0
65925695,52524,0,1.0078125,-0.03515625,0.021484375,-0.013671875,0.0,0.0,0.0
65926947,52525,0,1.0078125,-0.029296875,0.021484375,-0.0078125,0.0,0.0,0.0
65928198,52526,0,1.0078125,-0.029296875,0.01953125,-0.009765625,0.0,0.0,0.0
65929450,52527,0,1.0,-0.033203125,0.029296875,-0.00390625,0.0,0.0,0.0
65930700,52528,0,1.00390625,-0.02734375,0.01171875,-0.015625,0.0,0.0,0.0
65931952,52529,0,1.0078125,-0.029296875,0.021484375,-0.0078125,0.0,0.0,0.0
65933203,52530,0,1.01171875,-0.02734375,0.015625,-0.01171875,0.0,0.0,0.0
65934454,52531,0,1.00390625,-0.03125,0.015625,-0.015625,0.0,0.0,0.0
65935705,52532,0,1.00390625,-0.03125,0.009765625,-0.021484375,0.0,0.0,0.0
65936957,52533,0,0.998046875,-0.03125,0.01953125,-0.01171875,0.0,0.0,0.0
65938207,52534,0,1.009765625,-0.03125,0.013671875,-0.017578125,0.0,0.0,0.0
65939459,52535,0,1.001953125,-0.03125,0.01953125,-0.01171875,0.0,0.0,0.0
65940709,52536,0,1.005859375,-0.033203125,0.01953125,-0.013671875,0.0,0.0,0.0
65941959,52537,0,1.00390625,-0.033203125,0.013671875,-0.01953125,0.0,0.0,0.0
65943209,52538,0,0.99609375,-0.033203125,0.025390625,-0.0078125,0.0,0.0,0.0
65944459,52539,0,0.998046875,-0.029296875,0.01171875,-0.017578125,0.0,0.0,0.0
65945711,52540,0,1.0078125,-0.03125,0.01953125,-0.01171875,0.0,0.0,0.0
65946961,52541,0,1.005859375,-0.03125,0.017578125,-0.013671875,0.0,0.0,0.0
65948213,52542,0,1.0,-0.03125,0.017578125,-0.013671875,0.0,0.0,0.0
65949464,52543,0,1.009765625,-0.029296875,0.015625,-0.013671875,0.0,0.0,0.0
65950715,52544,0,1.0,-0.03125,0.015625,-0.015625,0.0,0.0,0.0
65951966,52545,0,1.005859375,-0.03125,0.01953125,-0.01171875,0.0,0.0,0.0
65953216,52546,0,1.00390625,-0.03125,0.021484375,-0.009765625,0.0,0.0,0.0
65954467,52547,0,1.001953125,-0.02734375,0.025390625,-0.001953125,0.0,0.0,0.0
65955718,52548,0,1.00390625,-0.02734375,0.017578125,-0.009765625,0.0,0.0,0.0
65956968,52549,0,1.009765625,-0.033203125,0.0078125,-0.025390625,0.0,0.0,0.0
65958219,52550,0,1.00390625,-0.03125,0.001953125,-0.029296875,0.0,0.0,0.0
65959470,52551,0,0.99609375,-0.029296875,0.02734375,-0.001953125,0.0,0.0,0.0
65960721,52552,0,1.0078125,-0.033203125,0.013671875,-0.01953125,0.0,0.0,0.0
65961971,52553,0,1.009765625,-0.03125,0.01171875,-0.01953125,0.0,0.0,0.0
65963223,52554,0,1.005859375,-0.033203125,0.0078125,-0.025390625,0.0,0.0,0.0
65964473,52555,0,0.994140625,-0.03125,0.017578125,-0.013671875,0.0,0.0,0.0
65965723,52556,0,1.001953125,-0.03125,0.015625,-0.015625,0.0,0.0,0.0
65966975,52557,0,1.005859375,-0.03515625,0.017578125,-0.017578125,0.0,0.0,0.0
65968226,52558,0,1.001953125,-0.029296875,0.021484375,-0.0078125,0.0,0.0,0.0
65969476,52559,0,1.009765625,-0.03125,0.013671875,-0.017578125,0.0,0.0,0.0
65970728,52560,0,1.0078125,-0.03125,0.015625,-0.015625,0.0,0.0,0.0
65971979,52561,0,1.0,-0.033203125,0.021484375,-0.01171875,0.0,0.0,0.0
65973229,52562,0,1.0078125,-0.03515625,0.017578125,-0.017578125,0.0,0.0,0.0
65974481,52563,0,1.001953125,-0.03125,0.021484375,-0.009765625,0.0,0.0,0.0
65975731,52564,0,1.001953125,-0.03515625,0.0234375,-0.01171875,0.0,0.0,0.0
65976981,52565,0,0.998046875,-0.033203125,0.013671875,-0.01953125,0.0,0.0,0.0
65978232,52566,0,1.005859375,-0.03515625,0.017578125,-0.017578125,0.0,0.0,0.0
65979483,52567,0,1.009765625,-0.03125,0.017578125,-0.013671875,0.0,0.0,0.0
65980734,52568,0,1.005859375,-0.033203125,0.015625,-0.017578125,0.0,0.0,0.0
65981986,52569,0,1.0,-0.02734375,0.009765625,-0.017578125,0.0,0.0,0.0
65983236,52570,0,1.005859375,-0.037109375,0.015625,-0.021484375,0.0,0.0,0.0
65984486,52571,0,1.00390625,-0.03125,0.01953125,-0.01171875,0.0,0.0,0.0
65985737,52572,0,1.013671875,-0.041015625,0.017578125,-0.0234375,0.0,0.0,0.0
65986987,52573,0,1.0,-0.029296875,0.01953125,-0.009765625,0.0,0.0,0.0
65988238,52574,0,0.994140625,-0.03125,0.015625,-0.015625,0.0,0.0,0.0
65989489,52575,0,1.001953125,-0.033203125,0.021484375,-0.01171875,0.0,0.0,0.0
65990740,52576,0,1.01171875,-0.029296875,0.0234375,-0.005859375,0.0,0.0,0.0
65991991,52577,0,1.005859375,-0.029296875,0.01953125,-0.009765625,0.0,0.0,0.0
65993241,52578,0,1.001953125,-0.02734375,0.021484375,-0.005859375,0.0,0.0,0.0
65994492,52579,0,0.998046875,-0.02734375,0.021484375,-0.005859375,0.0,0.0,0.0
65995744,52580,0,1.001953125,-0.033203125,0.01953125,-0.013671875,0.0,0.0,0.0
65996994,52581,0,1.0078125,-0.033203125,0.01953125,-0.013671875,0.0,0.0,0.0
65998245,52582,0,1.005859375,-0.033203125,0.01953125,-0.013671875,0.0,0.0,0.0
65999496,52583,0,1.0078125,-0.029296875,0.021484375,-0.0078125,0.0,0.0,0.0
66000747,52584,0,1.00390625,-0.03125,0.015625,-0.015625,0.0,0.0,0.0
66001998,52585,0,1.0,-0.03125,0.01171875,-0.01953125,0.0,0.0,0.0
66003249,52586,0,1.00390625,-0.033203125,0.01953125,-0.013671875,0.0,0.0,0.0
66004499,52587,0,1.001953125,-0.03125,0.0234375,-0.0078125,0.0,0.0,0.0
66005751,52588,0,0.998046875,-0.03125,0.017578125,-0.013671875,0.0,0.0,0.0
66007002,52589,0,1.001953125,-0.029296875,0.015625,-0.013671875,0.0,0.0,0.0
66008253,52590,0,1.001953125,-0.0234375,0.025390625,0.001953125,0.0,0.0,0.0
66009503,52591,0,1.0,-0.03515625,0.01953125,-0.015625,0.0,0.0,0.0
66010755,52592,0,1.00390625,-0.03515625,0.021484375,-0.013671875,0.0,0.0,0.0
66012005,52593,0,1.0,-0.025390625,0.017578125,-0.0078125,0.0,0.0,0.0
66013256,52594,0,1.001953125,-0.033203125,0.0234375,-0.009765625,0.0,0.0,0.0
66014506,52595,0,0.9921875,-0.029296875,0.025390625,-0.00390625,0.0,0.0,0.0
66015757,52596,0,1.001953125,-0.029296875,0.015625,-0.013671875,0.0,0.0,0.0
66017008,52597,0,1.005859375,-0.029296875,0.01953125,-0.009765625,0.0,0.0,0.0
66018258,52598,0,1.005859375,-0.029296875,0.017578125,-0.01171875,0.0,0.0,0.0
66019508,52599,0,1.001953125,-0.03125,0.017578125,-0.013671875,0.0,0.0,0.0
66020759,52600,0,1.001953125,-0.033203125,0.01953125,-0.013671875,0.0,0.0,0.0
66022009,52601,0,1.001953125,-0.03125,0.021484375,-0.009765625,0.0,0.0,0.0
66023259,52602,0,0.998046875,-0.029296875,0.013671875,-0.015625,0.0,0.0,0.0
66024510,52603,0,1.005859375,-0.03125,0.01953125,-0.01171875,0.0,0.0,0.0
66025762,52604,0,1.00390625,-0.033203125,0.01953125,-0.013671875,0.0,0.0,0.0
66027012,52605,0,1.001953125,-0.02734375,0.01953125,-0.0078125,0.0,0.0,0.0
66028271,52606,0,0.998046875,-0.03515625,0.021484375,-0.013671875,0.0,0.0,0.0
66029521,52607,0,1.001953125,-0.033203125,0.017578125,-0.015625,0.0,0.0,0.0
66030773,52608,0,1.001953125,-0.02734375,0.017578125,-0.009765625,0.0,0.0,0.0
66032023,52609,0,1.001953125,-0.033203125,0.015625,-0.017578125,0.0,0.0,0.0
66033274,52610,0,1.0078125,-0.029296875,0.021484375,-0.0078125,0.0,0.0,0.0
66034525,52611,0,1.001953125,-0.033203125,0.015625,-0.017578125,0.0,0.0,0.0
66035776,52612,0,1.0078125,-0.029296875,0.01953125,-0.009765625,0.0,0.0,0.0
66037026,52613,0,1.005859375,-0.03515625,0.013671875,-0.021484375,0.0,0.0,0.0
66038276,52614,0,1.0078125,-0.029296875,0.017578125,-0.01171875,0.0,0.0,0.0
66039527,52615,0,1.00390625,-0.025390625,0.021484375,-0.00390625,0.0,0.0,0.0
66040778,52616,0,1.001953125,-0.041015625,0.021484375,-0.01953125,0.0,0.0,0.0
66042029,52617,0,1.00390625,-0.03515625,0.01953125,-0.015625,0.0,0.0,0.0
66043280,52618,0,0.998046875,-0.029296875,0.021484375,-0.0078125,0.0,0.0,0.0
66044531,52619,0,0.998046875,-0.03125,0.0234375,-0.0078125,0.0,0.0,0.0
66045783,52620,0,1.00390625,-0.02734375,0.017578125,-0.009765625,0.0,0.0,0.0
66047034,52621,0,1.001953125,-0.03125,0.021484375,-0.009765625,0.0,0.0,0.0
66048286,52622,0,1.00390625,-0.029296875,0.021484375,-0.0078125,0.0,0.0,0.0
66049537,52623,0,1.00390625,-0.03125,0.01953125,-0.01171875,0.0,0.0,0.0
66050789,52624,0,1.00390625,-0.029296875,0.017578125,-0.01171875,0.0,0.0,0.0
66052039,52625,0,1.001953125,-0.033203125,0.015625,-0.017578125,0.0,0.0,0.0
66053289,52626,0,1.0078125,-0.03125,0.01953125,-0.01171875,0.0,0.0,0.0
66054541,52627,0,1.0078125,-0.033203125,0.01953125,-0.013671875,0.0,0.0,0.0
66055792,52628,0,1.001953125,-0.03515625,0.01953125,-0.015625,0.0,0.0,0.0
66057044,52629,0,1.0,-0.03125,0.021484375,-0.009765625,0.0,0.0,0.0
66058294,52630,0,0.998046875,-0.03125,0.01171875,-0.01953125,0.0,0.0,0.0
66059544,52631,0,1.0078125,-0.033203125,0.0234375,-0.009765625,0.0,0.0,0.0
66060795,52632,0,0.998046875,-0.029296875,0.01953125,-0.009765625,0.0,0.0,0.0
66062045,52633,0,1.00390625,-0.029296875,0.021484375,-0.0078125,0.0,0.0,0.0
66063295,52634,0,1.005859375,-0.029296875,0.021484375,-0.0078125,0.0,0.0,0.0
66064546,52635,0,1.013671875,-0.025390625,0.01953125,-0.005859375,0.0,0.0,-1.1368683772161603e-13
66067048,52637,0,1.0,-0.02734375,0.015625,-0.01171875,0.0,0.0,0.0
66068299,52638,0,0.998046875,-0.033203125,0.0234375,-0.009765625,0.0,0.0,0.0
66069550,52639,0,1.0,-0.033203125,0.021484375,-0.01171875,0.0,0.0,0.0
66070800,52640,0,0.9921875,-0.029296875,0.025390625,-0.00390625,0.0,0.0,0.0
66072052,52641,0,1.0,-0.03125,0.01953125,-0.01171875,0.0,0.0,0.0
66073303,52642,0,1.00390625,-0.03515625,0.015625,-0.01953125,0.0,0.0,0.0
66074554,52643,0,1.0078125,-0.029296875,0.0234375,-0.005859375,0.0,0.0,0.0
66075805,52644,0,1.009765625,-0.033203125,0.017578125,-0.015625,0.0,0.0,0.0
66077057,52645,0,1.009765625,-0.033203125,0.015625,-0.017578125,0.0,0.0,0.0
66078308,52646,0,1.001953125,-0.03125,0.01953125,-0.01171875,0.0,0.0,0.0
66079560,52647,0,0.998046875,-0.03125,0.017578125,-0.013671875,0.0,0.0,0.0
66080811,52648,0,1.00390625,-0.033203125,0.021484375,-0.01171875,0.0,0.0,0.0
66082063,52649,0,1.005859375,-0.03125,0.01953125,-0.01171875,0.0,0.0,0.0
66083314,52650,0,1.005859375,-0.037109375,0.021484375,-0.015625,0.0,0.0,0.0
66084565,52651,0,1.001953125,-0.03125,0.015625,-0.015625,0.0,0.0,0.0
66085816,52652,0,1.005859375,-0.033203125,0.021484375,-0.01171875,0.0,0.0,0.0
66087066,52653,0,1.005859375,-0.03125,0.017578125,-0.013671875,0.0,0.0,0.0
66088318,52654,0,1.0,-0.0234375,0.01953125,-0.00390625,0.0,0.0,0.0
66089569,52655,0,1.0,-0.021484375,0.021484375,0.0,0.0,0.0,0.0
66090819,52656,0,0.998046875,-0.0234375,0.01953125,-0.00390625,0.0,0.0,0.0
66092070,52657,0,1.0,-0.03125,0.021484375,-0.009765625,0.0,0.0,0.0
66093321,52658,0,1.0,-0.029296875,0.025390625,-0.00390625,0.0,0.0,0.0
66094572,52659,0,1.009765625,-0.03125,0.015625,-0.015625,0.0,0.0,0.0
66095823,52660,0,1.0078125,-0.033203125,0.015625,-0.017578125,0.0,0.0,0.0
66097074,52661,0,0.99609375,-0.0390625,0.021484375,-0.017578125,0.0,0.0,0.0
66098325,52662,0,0.99609375,-0.033203125,0.017578125,-0.015625,0.0,0.0,0.0
66099575,52663,0,1.0078125,-0.033203125,0.017578125,-0.015625,0.0,0.0,0.0
66100825,52664,0,1.005859375,-0.029296875,0.01953125,-0.009765625,0.0,0.0,0.0
66102076,52665,0,1.009765625,-0.033203125,0.015625,-0.017578125,0.0,0.0,0.0
66103326,52666,0,1.005859375,-0.029296875,0.01953125,-0.009765625,0.0,0.0,0.0
66104577,52667,0,1.005859375,-0.029296875,0.013671875,-0.015625,0.0,0.0,0.0
66105828,52668,0,0.998046875,-0.033203125,0.017578125,-0.015625,0.0,0.0,0.0
66107078,52669,0,0.998046875,-0.03125,0.01953125,-0.01171875,0.0,0.0,0.0
66108329,52670,0,1.001953125,-0.029296875,0.01953125,-0.009765625,0.0,0.0,0.0
66109581,52671,0,1.001953125,-0.033203125,0.017578125,-0.015625,0.0,0.0,0.0
66110833,52672,0,1.005859375,-0.033203125,0.01953125,-0.013671875,0.0,0.0,0.0
66112083,52673,0,1.00390625,-0.03125,0.015625,-0.015625,0.0,0.0,0.0
66113333,52674,0,1.00390625,-0.03125,0.01953125,-0.01171875,0.0,0.0,0.0
66114584,52675,0,1.009765625,-0.03125,0.01953125,-0.01171875,0.0,0.0,0.0
66115835,52676,0,1.013671875,-0.029296875,0.017578125,-0.01171875,0.0,0.0,0.0
66117085,52677,0,1.0078125,-0.03515625,0.017578125,-0.017578125,0.0,0.0,0.0
66118336,52678,0,0.99609375,-0.0390625,0.01953125,-0.01953125,0.0,0.0,0.0
66119587,52679,0,1.0,-0.033203125,0.0078125,-0.025390625,0.0,0.0,0.0
66120838,52680,0,1.0,-0.029296875,0.021484375,-0.0078125,0.0,0.0,0.0
66122090,52681,0,1.009765625,-0.03125,0.017578125,-0.013671875,0.0,0.0,0.0
66123341,52682,0,1.00390625,-0.025390625,0.021484375,-0.00390625,0.0,0.0,0.0
66124592,52683,0,1.001953125,-0.03515625,0.02734375,-0.0078125,0.0,0.0,0.0
66125844,52684,0,1.0,-0.02734375,0.01953125,-0.0078125,0.0,0.0,0.0
66127095,52685,0,0.998046875,-0.03515625,0.025390625,-0.009765625,0.0,0.0,0.0
66128346,52686,0,1.001953125,-0.029296875,0.021484375,-0.0078125,0.0,0.0,0.0
66129597,52687,0,1.0078125,-0.029296875,0.01953125,-0.009765625,0.0,0.0,0.0
66130849,52688,0,1.009765625,-0.029296875,0.017578125,-0.01171875,0.0,0.0,0.0
66132099,52689,0,1.009765625,-0.03125,0.01953125,-0.01171875,0.0,0.0,0.0
66133351,52690,0,1.0,-0.03125,0.021484375,-0.009765625,0.0,0.0,0.0
66134602,52691,0,1.001953125,-0.033203125,0.021484375,-0.01171875,0.0,0.0,0.0
66135854,52692,0,1.005859375,-0.033203125,0.021484375,-0.01171875,0.0,0.0,0.0
66137104,52693,0,1.0,-0.03125,0.01953125,-0.01171875,0.0,0.0,0.0
66138354,52694,0,1.001953125,-0.033203125,0.021484375,-0.01171875,0.0,0.0,0.0
66139605,52695,0,1.009765625,-0.029296875,0.017578125,-0.01171875,0.0,0.0,0.0
66140855,52696,0,1.001953125,-0.029296875,0.01953125,-0.009765625,0.0,0.0,0.0
66142107,52697,0,1.009765625,-0.029296875,0.015625,-0.013671875,0.0,0.0,0.0
66143358,52698,0,1.005859375,-0.03125,0.015625,-0.015625,0.0,0.0,0.0
66144609,52699,0,1.00390625,-0.033203125,0.0234375,-0.009765625,0.0,0.0,0.0
66145859,52700,0,0.998046875,-0.03125,0.017578125,-0.013671875,0.0,0.0,0.0
66147111,52701,0,0.9921875,-0.02734375,0.029296875,0.001953125,0.0,0.0,0.0
66148362,52702,0,1.01171875,-0.033203125,0.021484375,-0.01171875,0.0,0.0,0.0
66149613,52703,0,0.998046875,-0.033203125,0.021484375,-0.01171875,0.0,0.0,0.0
66150865,52704,0,1.00390625,-0.03125,0.015625,-0.015625,0.0,0.0,0.0
66152115,52705,0,1.0078125,-0.03125,0.015625,-0.015625,0.0,0.0,0.0
66153365,52706,0,1.005859375,-0.029296875,0.01171875,-0.017578125,0.0,0.0,0.0
66154617,52707,0,0.998046875,-0.033203125,0.017578125,-0.015625,0.0,0.0,0.0
66155867,52708,0,1.005859375,-0.02734375,0.017578125,-0.009765625,0.0,0.0,0.0
66157118,52709,0,1.005859375,-0.037109375,0.021484375,-0.015625,0.0,0.0,0.0
66158369,52710,0,1.00390625,-0.025390625,0.015625,-0.009765625,0.0,0.0,0.0
66159620,52711,0,1.00390625,-0.029296875,0.013671875,-0.015625,0.0,0.0,0.0
66160871,52712,0,1.001953125,-0.033203125,0.009765625,-0.0234375,0.0,0.0,0.0
66162123,52713,0,0.998046875,-0.029296875,0.01953125,-0.009765625,0.0,0.0,0.0
66163374,52714,0,1.005859375,-0.033203125,0.01953125,-0.013671875,0.0,0.0,0.0
66164624,52715,0,1.005859375,-0.033203125,0.017578125,-0.015625,0.0,0.0,0.0
66165875,52716,0,1.00390625,-0.02734375,0.015625,-0.01171875,0.0,0.0,0.0
66167125,52717,0,1.001953125,-0.033203125,0.025390625,-0.0078125,0.0,0.0,0.0
66168375,52718,0,1.001953125,-0.033203125,0.021484375,-0.01171875,0.0,0.0,0.0
66169626,52719,0,0.99609375,-0.03125,0.021484375,-0.009765625,0.0,0.0,0.0
66170877,52720,0,1.0078125,-0.03515625,0.01171875,-0.0234375,0.0,0.0,0.0
66172129,52721,0,1.005859375,-0.0390625,0.015625,-0.0234375,0.0,0.0,0.0
66173380,52722,0,1.015625,-0.033203125,0.021484375,-0.01171875,0.0,0.0,0.0
66174630,52723,0,1.0078125,-0.02734375,0.0234375,-0.00390625,0.0,0.0,0.0
66175881,52724,0,1.005859375,-0.033203125,0.025390625,-0.0078125,0.0,0.0,0.0
66177133,52725,0,1.01171875,-0.029296875,0.01953125,-0.009765625,0.0,0.0,0.0
66178384,52726,0,1.0,-0.02734375,0.01953125,-0.0078125,0.0,0.0,0.0
66179634,52727,0,1.005859375,-0.029296875,0.013671875,-0.015625,0.0,0.0,0.0
66180886,52728,0,1.00390625,-0.03125,0.021484375,-0.009765625,0.0,0.0,0.0
66182136,52729,0,1.00390625,-0.029296875,0.017578125,-0.01171875,0.0,0.0,0.0
66183386,52730,0,0.998046875,-0.033203125,0.01171875,-0.021484375,0.0,0.0,0.0
66184638,52731,0,1.00390625,-0.03125,0.01953125,-0.01171875,0.0,0.0,0.0
66185888,52732,0,1.001953125,-0.029296875,0.021484375,-0.0078125,0.0,0.0,0.0
66187139,52733,0,1.001953125,-0.033203125,0.01953125,-0.013671875,0.0,0.0,0.0
66188391,52734,0,1.005859375,-0.03515625,0.01953125,-0.015625,0.0,0.0,0.0
66189641,52735,0,1.0,-0.029296875,0.01953125,-0.009765625,0.0,0.0,0.0
66190892,52736,0,1.001953125,-0.033203125,0.01953125,-0.013671875,0.0,0.0,0.0
66192142,52737,0,1.0078125,-0.03125,0.0234375,-0.0078125,0.0,0.0,0.0
66193393,52738,0,1.0078125,-0.033203125,0.017578125,-0.015625,0.0,0.0,0.0
66194645,52739,0,1.0078125,-0.02734375,0.013671875,-0.013671875,0.0,0.0,0.0
66195895,52740,0,1.001953125,-0.03125,0.01171875,-0.01953125,0.0,0.0,0.0
66197147,52741,0,1.01171875,-0.029296875,0.021484375,-0.0078125,0.0,0.0,0.0
66198397,52742,0,1.013671875,-0.03125,0.0234375,-0.0078125,0.0,0.0,0.0
66199649,52743,0,1.001953125,-0.025390625,0.025390625,0.0,0.0,0.0,0.0
66200899,52744,0,1.0,-0.033203125,0.021484375,-0.01171875,0.0,0.0,0.0
66202149,52745,0,1.01171875,-0.033203125,0.0234375,-0.009765625,0.0,0.0,0.0
66203399,52746,0,0.998046875,-0.037109375,0.01953125,-0.017578125,0.0,0.0,0.0
66204650,52747,0,1.005859375,-0.03515625,0.013671875,-0.021484375,0.0,0.0,0.0
66205902,52748,0,1.00390625,-0.03125,0.017578125,-0.013671875,0.0,0.0,0.0
66207153,52749,0,0.998046875,-0.03515625,0.0234375,-0.01171875,0.0,0.0,0.0
66208404,52750,0,1.0078125,-0.03125,0.01953125,-0.01171875,0.0,0.0,0.0
66209654,52751,0,1.005859375,-0.029296875,0.021484375,-0.0078125,0.0,0.0,0.0
66210904,52752,0,1.005859375,-0.029296875,0.01953125,-0.009765625,0.0,0.0,0.0
66212155,52753,0,1.005859375,-0.033203125,0.017578125,-0.015625,0.0,0.0,0.0
66213407,52754,0,1.0078125,-0.029296875,0.017578125,-0.01171875,0.0,0.0,0.0
66214657,52755,0,1.001953125,-0.03125,0.01953125,-0.01171875,0.0,0.0,0.0
66215909,52756,0,1.0078125,-0.033203125,0.017578125,-0.015625,0.0,0.0,0.0
66217159,52757,0,1.0078125,-0.029296875,0.02734375,-0.001953125,0.0,0.0,0.0
66218409,52758,0,1.0,-0.02734375,0.01953125,-0.0078125,0.0,0.0,0.0
66219661,52759,0,1.00390625,-0.03125,0.01953125,-0.01171875,0.0,0.0,0.0
66220911,52760,0,1.00390625,-0.037109375,0.021484375,-0.015625,0.0,0.0,0.0
66222161,52761,0,0.994140625,-0.033203125,0.01953125,-0.013671875,0.0,0.0,0.0
66223411,52762,0,1.009765625,-0.033203125,0.01953125,-0.013671875,0.0,0.0,0.0
66224663,52763,0,1.005859375,-0.033203125,0.015625,-0.017578125,0.0,0.0,0.0
66225913,52764,0,0.99609375,-0.029296875,0.013671875,-0.015625,0.0,0.0,0.0
66227164,52765,0,1.005859375,-0.029296875,0.017578125,-0.01171875,0.0,0.0,0.0
66228415,52766,0,0.998046875,-0.033203125,0.0078125,-0.025390625,0.0,0.0,0.0
66229666,52767,0,0.998046875,-0.029296875,0.013671875,-0.015625,0.0,0.0,0.0
66230916,52768,0,1.005859375,-0.029296875,0.01953125,-0.009765625,0.0,0.0,0.0
66232167,52769,0,1.005859375,-0.03125,0.0234375,-0.0078125,0.0,0.0,0.0
66233417,52770,0,1.00390625,-0.03515625,0.017578125,-0.017578125,0.0,0.0,0.0
66234668,52771,0,1.009765625,-0.033203125,0.015625,-0.017578125,0.0,0.0,0.0
66235920,52772,0,1.0,-0.03515625,0.01953125,-0.015625,0.0,0.0,0.0
66237171,52773,0,1.00390625,-0.03515625,0.013671875,-0.021484375,0.0,0.0,0.0
66238421,52774,0,0.998046875,-0.033203125,0.025390625,-0.0078125,0.0,0.0,0.0
66239672,52775,0,0.998046875,-0.033203125,0.01953125,-0.013671875,0.0,0.0,0.0
66240924,52776,0,0.998046875,-0.029296875,0.021484375,-0.0078125,0.0,0.0,0.0
66242174,52777,0,1.00390625,-0.033203125,0.015625,-0.017578125,0.0,0.0,0.0
66243425,52778,0,1.001953125,-0.033203125,0.01953125,-0.013671875,0.0,0.0,0.0
66244677,52779,0,0.998046875,-0.033203125,0.01953125,-0.013671875,0.0,0.0,0.0
66245927,52780,0,1.005859375,-0.03125,0.017578125,-0.013671875,0.0,0.0,0.0
66247177,52781,0,1.00390625,-0.03125,0.01953125,-0.01171875,0.0,0.0,0.0
66248429,52782,0,1.001953125,-0.03125,0.02734375,-0.00390625,0.0,0.0,0.0
66249679,52783,0,0.99609375,-0.03515625,0.025390625,-0.009765625,0.0,0.0,0.0
66250931,52784,0,1.001953125,-0.03125,0.015625,-0.015625,0.0,0.0,0.0
66252181,52785,0,0.998046875,-0.03515625,0.017578125,-0.017578125,0.0,0.0,0.0
66253431,52786,0,0.998046875,-0.033203125,0.021484375,-0.01171875,0.0,0.0,0.0
66254683,52787,0,1.0,-0.029296875,0.01953125,-0.009765625,0.0,0.0,0.0
66255933,52788,0,1.0,-0.03125,0.0234375,-0.0078125,0.0,0.0,0.0
66257183,52789,0,1.0,-0.03125,0.01171875,-0.01953125,0.0,0.0,0.0
66258434,52790,0,1.0,-0.029296875,0.01171875,-0.017578125,0.0,0.0,0.0
66259685,52791,0,1.001953125,-0.037109375,0.01953125,-0.017578125,0.0,0.0,0.0
66260936,52792,0,1.005859375,-0.03125,0.0234375,-0.0078125,0.0,0.0,0.0
66262186,52793,0,1.005859375,-0.033203125,0.021484375,-0.01171875,0.0,0.0,0.0
66263437,52794,0,0.998046875,-0.03125,0.013671875,-0.017578125,0.0,0.0,0.0
66264687,52795,0,1.0,-0.029296875,0.013671875,-0.015625,0.0,0.0,0.0
66265937,52796,0,1.0,-0.02734375,0.017578125,-0.009765625,0.0,0.0,0.0
66267188,52797,0,1.00390625,-0.029296875,0.0234375,-0.005859375,0.0,0.0,0.0
66268440,52798,0,1.001953125,-0.02734375,0.021484375,-0.005859375,0.0,0.0,0.0
66269690,52799,0,0.998046875,-0.03125,0.01953125,-0.01171875,0.0,0.0,0.0
66270942,52800,0,1.0,-0.02734375,0.01953125,-0.0078125,0.0,0.0,0.0
66272193,52801,0,1.01171875,-0.029296875,0.01953125,-0.009765625,0.0,0.0,0.0
66273445,52802,0,1.0,-0.02734375,0.015625,-0.01171875,0.0,0.0,0.0
66274695,52803,0,1.005859375,-0.03125,0.021484375,-0.009765625,0.0,0.0,0.0
66275947,52804,0,1.00390625,-0.029296875,0.015625,-0.013671875,0.0,0.0,0.0
66277198,52805,0,1.01171875,-0.0390625,0.01171875,-0.02734375,0.0,0.0,0.0
66278450,52806,0,1.001953125,-0.033203125,0.009765625,-0.0234375,0.0,0.0,0.0
66279700,52807,0,0.998046875,-0.03125,0.01953125,-0.01171875,0.0,0.0,0.0
66280952,52808,0,1.015625,-0.02734375,0.01953125,-0.0078125,0.0,0.0,0.0
66282203,52809,0,1.009765625,-0.037109375,0.0,-0.037109375,0.0,0.0,0.0
66283454,52810,0,1.01171875,-0.03515625,0.009765625,-0.025390625,0.0,0.0,0.0
66284705,52811,0,1.005859375,-0.0390625,0.015625,-0.0234375,0.0,0.0,0.0
66285957,52812,0,1.001953125,-0.033203125,0.017578125,-0.015625,0.0,0.0,0.0
66287207,52813,0,1.0,-0.033203125,0.01953125,-0.013671875,0.0,0.0,0.0
66288459,52814,0,0.99609375,-0.03125,0.01953125,-0.01171875,0.0,0.0,0.0
66289709,52815,0,0.998046875,-0.033203125,0.015625,-0.017578125,0.0,0.0,0.0
66290959,52816,0,1.0078125,-0.03515625,0.017578125,-0.017578125,0.0,0.0,0.0
66292209,52817,0,1.001953125,-0.02734375,0.013671875,-0.013671875,0.0,0.0,0.0
66293459,52818,0,1.005859375,-0.033203125,0.021484375,-0.01171875,0.0,0.0,0.0
66294711,52819,0,1.001953125,-0.02734375,0.01953125,-0.0078125,0.0,0.0,0.0
66295961,52820,0,1.00390625,-0.033203125,0.021484375,-0.01171875,0.0,0.0,0.0
66297213,52821,0,1.0078125,-0.03125,0.01953125,-0.01171875,0.0,0.0,0.0
66298464,52822,0,0.998046875,-0.033203125,0.021484375,-0.01171875,0.0,0.0,0.0
66299715,52823,0,1.005859375,-0.029296875,0.015625,-0.013671875,0.0,0.0,0.0
66300966,52824,0,1.005859375,-0.03515625,0.01953125,-0.015625,0.0,0.0,0.0
66302216,52825,0,1.0,-0.041015625,0.0078125,-0.033203125,0.0,0.0,0.0
66303467,52826,0,0.998046875,-0.03125,0.017578125,-0.013671875,0.0,0.0,0.0
66304718,52827,0,1.01171875,-0.041015625,0.009765625,-0.03125,0.0,0.0,0.0
66305968,52828,0,0.998046875,-0.037109375,0.013671875,-0.0234375,0.0,0.0,0.0
66307219,52829,0,0.994140625,-0.044921875,0.0078125,-0.037109375,0.0,0.0,0.0
66308470,52830,0,0.99609375,-0.04296875,0.0078125,-0.03515625,0.0,0.0,0.0
66309721,52831,0,1.00390625,-0.04296875,0.013671875,-0.029296875,0.0,0.0,0.0
66310971,52832,0,0.9921875,-0.048828125,0.015625,-0.033203125,0.0,0.0,0.0
66312223,52833,0,1.005859375,-0.04296875,0.009765625,-0.033203125,0.0,0.0,0.0
66313473,52834,0,1.0,-0.046875,0.009765625,-0.037109375,0.0,0.0,0.0
66314723,52835,0,1.0,-0.041015625,0.01171875,-0.029296875,0.0,0.0,0.0
66315975,52836,0,1.001953125,-0.052734375,0.009765625,-0.04296875,0.0,0.0,0.0
66317226,52837,0,0.99609375,-0.05078125,0.0078125,-0.04296875,0.0,0.0,0.0
66318476,52838,0,0.998046875,-0.04296875,0.005859375,-0.037109375,0.0,0.0,0.0
66319728,52839,0,1.0,-0.03515625,0.015625,-0.01953125,0.0,0.0,0.0
66320979,52840,0,1.00390625,-0.041015625,0.021484375,-0.01953125,0.0,0.0,0.0
66322229,52841,0,0.9921875,-0.056640625,0.001953125,-0.0546875,0.0,0.0,0.0
66323481,52842,0,0.9921875,-0.072265625,-0.001953125,-0.07421875,0.0,0.0,0.0
66324731,52843,0,0.998046875,-0.048828125,-0.00390625,-0.052734375,0.0,0.0,0.0
66325981,52844,0,0.99609375,-0.0546875,0.00390625,-0.05078125,0.0,0.0,0.0
66327232,52845,0,0.99609375,-0.048828125,0.0078125,-0.041015625,0.0,0.0,0.0
66328483,52846,0,0.994140625,-0.04296875,0.013671875,-0.029296875,0.0,0.0,0.0
66329734,52847,0,1.0,-0.0546875,0.00390625,-0.05078125,0.0,0.0,0.0
66330986,52848,0,1.00390625,-0.068359375,-0.005859375,-0.07421875,0.0,0.0,0.0
66332236,52849,0,0.998046875,-0.0703125,0.001953125,-0.068359375,0.0,0.0,0.0
66333486,52850,0,1.0,-0.0546875,0.001953125,-0.052734375,0.0,0.0,0.0
66334737,52851,0,1.001953125,-0.056640625,0.005859375,-0.05078125,0.0,0.0,0.0
66335987,52852,0,0.998046875,-0.083984375,-0.0078125,-0.091796875,0.0,0.0,0.0
66337238,52853,0,0.984375,-0.0859375,-0.005859375,-0.091796875,0.0,0.0,0.0
66338489,52854,0,0.994140625,-0.083984375,-0.0078125,-0.091796875,0.0,0.0,0.0
66339740,52855,0,0.990234375,-0.1171875,-0.033203125,-0.150390625,0.0,0.0,0.0
66340991,52856,0,0.984375,-0.23828125,-0.09765625,-0.3359375,0.0,0.0,0.0
66342241,52857,0,0.97265625,-0.45703125,-0.171875,-0.62890625,0.0,0.0,0.0
66343492,52858,0,1.416015625,-2.177734375,-1.6875,-3.865234375,0.0,0.0,0.0
66344744,52859,0,0.814453125,-1.232421875,-0.09375,-1.326171875,0.0,0.0,0.0
66345994,52860,0,1.744140625,0.205078125,0.287109375,0.4921875,0.0,0.0,0.0
66347245,52861,0,0.76953125,0.431640625,0.37109375,0.802734375,0.0,0.0,0.0
66348496,52862,0,1.345703125,0.447265625,0.072265625,0.51953125,0.0,0.0,0.0
66349747,52863,0,0.603515625,0.15234375,0.216796875,0.369140625,0.0,0.0,0.0
66350998,52864,0,1.21875,-0.267578125,-0.06640625,-0.333984375,0.0,0.0,0.0
66352249,52865,0,0.822265625,-0.94921875,-0.333984375,-1.283203125,0.0,0.0,0.0
66353499,52866,0,1.306640625,-1.001953125,-0.392578125,-1.39453125,0.0,0.0,0.0
66354751,52867,0,0.654296875,-1.177734375,-0.4375,-1.615234375,0.0,0.0,0.0
66356002,52868,0,1.29296875,-0.96875,-0.537109375,-1.505859375,0.0,0.0,0.0
66357253,52869,0,0.85546875,-0.509765625,-0.26171875,-0.771484375,0.0,0.0,0.0
66358503,52870,0,1.095703125,-0.146484375,-0.1328125,-0.279296875,0.0,0.0,0.0
66359755,52871,0,0.91015625,-0.037109375,-0.056640625,-0.09375,0.0,0.0,0.0
66361005,52872,0,1.037109375,-0.7578125,-0.3203125,-1.078125,0.0,0.0,0.0
66362256,52873,0,0.53515625,-2.853515625,-2.22265625,-5.076171875,0.0,0.0,0.0
66363506,52874,0,0.90625,-4.0,-2.86328125,-6.86328125,0.0,0.0,0.0
66364757,52875,0,0.2734375,-4.0,-3.591796875,-7.591796875,0.0,0.0,0.0
66366008,52876,0,0.578125,0.4609375,-1.46484375,-1.00390625,0.0,0.0,0.0
66367258,52877,0,1.21484375,3.998046875,-0.025390625,3.97265625,0.0,0.0,0.0
66368508,52878,0,1.138671875,3.998046875,1.728515625,5.7265625,0.0,0.0,0.0
66369759,52879,0,1.625,3.998046875,2.638671875,6.63671875,0.0,0.0,0.0
66371009,52880,0,1.283203125,3.998046875,3.099609375,7.09765625,0.0,0.0,0.0
66372259,52881,0,0.61328125,3.998046875,3.08984375,7.087890625,0.0,0.0,0.0
66373510,52882,0,1.46875,3.998046875,2.076171875,6.07421875,0.0,0.0,0.0
66374762,52883,0,0.92578125,2.796875,1.119140625,3.916015625,0.0,0.0,0.0
66376012,52884,0,0.95703125,0.18359375,0.064453125,0.248046875,0.0,0.0,0.0
66377271,52885,0,1.16796875,-2.08984375,-0.8671875,-2.95703125,0.0,0.0,0.0
66378521,52886,0,1.1484375,-3.66796875,-1.486328125,-5.154296875,0.0,0.0,0.0
66379773,52887,0,0.740234375,-4.0,-1.546875,-5.546875,0.0,0.0,0.0
66381023,52888,0,0.72265625,-4.0,-1.53125,-5.53125,0.0,0.0,0.0
66382274,52889,0,0.93359375,-3.416015625,-1.37109375,-4.787109375,0.0,0.0,0.0
66383525,52890,0,0.72265625,-2.046875,-0.806640625,-2.853515625,0.0,0.0,0.0
66384776,52891,0,1.001953125,-0.517578125,-0.345703125,-0.86328125,0.0,0.0,0.0
66386026,52892,0,1.28125,0.88671875,0.080078125,0.966796875,0.0,0.0,0.0
66387276,52893,0,1.126953125,1.841796875,0.58203125,2.423828125,0.0,0.0,0.0
66388527,52894,0,1.025390625,2.49609375,0.908203125,3.404296875,0.0,0.0,0.0
66389778,52895,0,1.138671875,2.623046875,0.9609375,3.583984375,0.0,0.0,0.0
66391029,52896,0,0.9921875,2.220703125,0.9140625,3.134765625,0.0,0.0,0.0
66392280,52897,0,0.810546875,1.509765625,0.75,2.259765625,0.0,0.0,0.0
66393531,52898,0,1.02734375,0.630859375,0.296875,0.927734375,0.0,0.0,0.0
66394783,52899,0,1.10546875,-0.234375,-0.09375,-0.328125,0.0,0.0,0.0
66396034,52900,0,1.001953125,-0.9375,-0.3203125,-1.2578125,0.0,0.0,0.0
66397286,52901,0,1.044921875,-1.38671875,-0.533203125,-1.919921875,0.0,0.0,0.0
66398537,52902,0,1.087890625,-1.529296875,-0.595703125,-2.125,0.0,0.0,0.0
66399789,52903,0,0.86328125,-1.380859375,-0.462890625,-1.84375,0.0,0.0,0.0
66401039,52904,0,0.837890625,-1.017578125,-0.310546875,-1.328125,0.0,0.0,0.0
66402289,52905,0,0.990234375,-0.509765625,-0.1953125,-0.705078125,0.0,0.0,0.0
66403541,52906,0,0.982421875,0.001953125,-0.01953125,-0.017578125,0.0,0.0,0.0
66404792,52907,0,1.009765625,0.4453125,0.166015625,0.611328125,0.0,0.0,0.0
66406044,52908,0,1.16796875,0.73828125,0.2265625,0.96484375,0.0,0.0,0.0
66407294,52909,0,1.12109375,0.875,0.30859375,1.18359375,0.0,0.0,0.0
66408544,52910,0,0.96484375,0.822265625,0.37109375,1.193359375,0.0,0.0,0.0
66409795,52911,0,0.984375,0.619140625,0.30078125,0.919921875,0.0,0.0,0.0
66411045,52912,0,0.990234375,0.3359375,0.1875,0.5234375,0.0,0.0,0.0
66412295,52913,0,0.90625,0.021484375,0.099609375,0.12109375,0.0,0.0,0.0
66413546,52914,0,0.9921875,-0.24609375,-0.056640625,-0.302734375,0.0,0.0,0.0
66414797,52915,0,1.103515625,-0.4453125,-0.171875,-0.6171875,0.0,0.0,0.0
66416048,52916,0,1.03515625,-0.533203125,-0.169921875,-0.703125,0.0,0.0,0.0
66417299,52917,0,1.0,-0.396484375,-0.134765625,-0.53125,0.0,0.0,0.0
66418550,52918,0,1.013671875,-0.224609375,-0.041015625,-0.265625,0.0,0.0,0.0
66419800,52919,0,0.904296875,-0.046875,0.05078125,0.00390625,0.0,0.0,0.0
66421052,52920,0,1.009765625,0.115234375,0.064453125,0.1796875,0.0,0.0,0.0
66422303,52921,0,1.056640625,0.236328125,0.0859375,0.322265625,0.0,0.0,0.0
66423554,52922,0,1.041015625,0.302734375,0.13671875,0.439453125,0.0,0.0,0.0
66424805,52923,0,1.076171875,0.294921875,0.12109375,0.416015625,0.0,0.0,0.0
66426057,52924,0,1.052734375,0.23828125,0.1171875,0.35546875,0.0,0.0,0.0
66427308,52925,0,0.939453125,0.150390625,0.126953125,0.27734375,0.0,0.0,0.0
66428560,52926,0,0.939453125,0.037109375,0.0859375,0.123046875,0.0,0.0,0.0
66429811,52927,0,0.98828125,-0.060546875,0.015625,-0.044921875,0.0,0.0,0.0
66431063,52928,0,0.982421875,-0.12890625,-0.009765625,-0.138671875,0.0,0.0,0.0
66432314,52929,0,1.025390625,-0.1640625,-0.044921875,-0.208984375,0.0,0.0,0.0
66433565,52930,0,1.0703125,-0.169921875,-0.07421875,-0.244140625,0.0,0.0,0.0
66434816,52931,0,1.03125,-0.140625,-0.05078125,-0.19140625,0.0,0.0,0.0
66436066,52932,0,0.97265625,-0.0859375,0.009765625,-0.076171875,0.0,0.0,0.0
66437318,52933,0,0.974609375,-0.025390625,0.03125,0.005859375,0.0,0.0,0.0
66438569,52934,0,0.974609375,0.033203125,0.046875,0.080078125,0.0,0.0,0.0
66439819,52935,0,0.96484375,0.076171875,0.078125,0.154296875,0.0,0.0,0.0
66441070,52936,0,1.03125,0.08984375,0.048828125,0.138671875,0.0,0.0,0.0
66442321,52937,0,1.0625,0.091796875,0.02734375,0.119140625,0.0,0.0,0.0
66443572,52938,0,1.02734375,0.076171875,0.044921875,0.12109375,0.0,0.0,0.0
66444823,52939,0,1.01953125,0.041015625,0.0390625,0.080078125,0.0,0.0,0.0
66446074,52940,0,1.00390625,0.0,0.03125,0.03125,0.0,0.0,0.0
66447325,52941,0,0.9609375,-0.033203125,0.03515625,0.001953125,0.0,0.0,0.0
66448575,52942,0,0.955078125,-0.05859375,0.021484375,-0.037109375,0.0,0.0,0.0
66449825,52943,0,1.009765625,-0.080078125,-0.009765625,-0.08984375,0.0,0.0,0.0
66451076,52944,0,1.03125,-0.080078125,-0.01953125,-0.099609375,0.0,0.0,0.0
66452326,52945,0,1.02734375,-0.078125,-0.013671875,-0.091796875,0.0,0.0,0.0
66453577,52946,0,1.04296875,-0.064453125,-0.017578125,-0.08203125,0.0,0.0,0.0
66454828,52947,0,1.01171875,-0.046875,0.005859375,-0.041015625,0.0,0.0,0.0
66456078,52948,0,0.970703125,-0.0234375,0.029296875,0.005859375,0.0,0.0,0.0
66457329,52949,0,0.97265625,-0.015625,0.033203125,0.017578125,0.0,0.0,0.0
66458581,52950,0,0.994140625,-0.001953125,0.0234375,0.021484375,0.0,0.0,0.0
66459833,52951,0,0.998046875,-0.00390625,0.0234375,0.01953125,0.0,0.0,0.0
66461083,52952,0,1.017578125,-0.005859375,0.009765625,0.00390625,0.0,0.0,0.0
66462333,52953,0,1.046875,-0.01953125,0.001953125,-0.017578125,0.0,0.0,0.0
66463584,52954,0,1.025390625,-0.029296875,0.00390625,-0.025390625,0.0,0.0,0.0
66464835,52955,0,0.998046875,-0.0390625,0.015625,-0.0234375,0.0,0.0,0.0
66466085,52956,0,0.986328125,-0.052734375,0.00390625,-0.048828125,0.0,0.0,0.0
66467336,52957,0,0.974609375,-0.064453125,0.005859375,-0.05859375,0.0,0.0,0.0
66468587,52958,0,0.98046875,-0.056640625,-0.0078125,-0.064453125,0.0,0.0,0.0
66469838,52959,0,1.021484375,-0.0546875,-0.009765625,-0.064453125,0.0,0.0,0.0
66471090,52960,0,1.037109375,-0.04296875,0.0,-0.04296875,0.0,0.0,0.0
66472341,52961,0,1.01171875,-0.033203125,0.0078125,-0.025390625,0.0,0.0,0.0
66473592,52962,0,1.00390625,-0.02734375,0.015625,-0.01171875,0.0,0.0,0.0
66474844,52963,0,0.9765625,-0.025390625,0.0234375,-0.001953125,0.0,0.0,0.0
66476095,52964,0,0.978515625,-0.021484375,0.0234375,0.001953125,0.0,0.0,0.0
66477346,52965,0,1.001953125,-0.021484375,0.013671875,-0.0078125,0.0,0.0,0.0
66478597,52966,0,1.01171875,-0.017578125,0.017578125,0.0,0.0,0.0,0.0
66479849,52967,0,1.0234375,-0.01953125,0.01171875,-0.0078125,0.0,0.0,0.0
66481099,52968,0,1.025390625,-0.01953125,0.00390625,-0.015625,0.0,0.0,0.0
66482351,52969,0,1.013671875,-0.029296875,0.013671875,-0.015625,0.0,0.0,0.0
66483602,52970,0,0.98828125,-0.029296875,0.0234375,-0.005859375,0.0,0.0,0.0
66484854,52971,0,0.990234375,-0.029296875,0.017578125,-0.01171875,0.0,0.0,0.0
66486104,52972,0,0.99609375,-0.029296875,0.01953125,-0.009765625,0.0,0.0,0.0
66487354,52973,0,0.998046875,-0.0234375,0.01953125,-0.00390625,0.0,0.0,0.0
66488605,52974,0,1.01953125,-0.01953125,0.013671875,-0.005859375,0.0,0.0,0.0
66489855,52975,0,1.025390625,-0.01953125,0.0078125,-0.01171875,0.0,0.0,0.0
66491107,52976,0,1.009765625,-0.009765625,0.017578125,0.0078125,0.0,0.0,0.0
66492358,52977,0,1.00390625,-0.015625,0.021484375,0.005859375,0.0,0.0,0.0
66493609,52978,0,0.98828125,-0.0078125,0.033203125,0.025390625,0.0,0.0,0.0
66494859,52979,0,1.00390625,-0.0078125,0.0234375,0.015625,0.0,0.0,0.0
66496111,52980,0,0.994140625,-0.005859375,-0.0390625,-0.044921875,0.0,0.0,0.0
66497362,52981,0,1.013671875,-0.01171875,0.02734375,0.015625,0.0,0.0,0.0
66498613,52982,0,1.015625,-0.01171875,0.017578125,0.005859375,0.0,0.0,0.0
66499865,52983,0,1.01171875,-0.015625,0.021484375,0.005859375,0.0,0.0,0.0
66501115,52984,0,1.0078125,-0.01171875,0.01953125,0.0078125,0.0,0.0,0.0
66502365,52985,0,1.00390625,-0.01953125,0.025390625,0.005859375,0.0,0.0,0.0
66503617,52986,0,0.994140625,-0.01953125,0.017578125,-0.001953125,0.0,0.0,0.0
66504867,52987,0,0.994140625,-0.017578125,0.02734375,0.009765625,0.0,0.0,0.0
66506118,52988,0,1.009765625,-0.017578125,0.01953125,0.001953125,0.0,0.0,0.0
66507369,52989,0,1.005859375,-0.021484375,0.0234375,0.001953125,0.0,0.0,0.0
66508620,52990,0,1.001953125,-0.0234375,0.01953125,-0.00390625,0.0,0.0,0.0
66509871,52991,0,1.013671875,-0.021484375,0.015625,-0.005859375,0.0,0.0,0.0
66511123,52992,0,1.00390625,-0.0234375,0.021484375,-0.001953125,0.0,0.0,0.0
66512374,52993,0,0.994140625,-0.021484375,0.01953125,-0.001953125,0.0,0.0,0.0
66513624,52994,0,1.0,-0.021484375,0.01953125,-0.001953125,0.0,0.0,0.0
66514875,52995,0,1.005859375,-0.02734375,0.021484375,-0.005859375,0.0,0.0,0.0
66516125,52996,0,1.0,-0.033203125,0.009765625,-0.0234375,0.0,0.0,0.0
66517375,52997,0,1.00390625,-0.02734375,0.01171875,-0.015625,0.0,0.0,0.0
66518626,52998,0,1.005859375,-0.03125,0.013671875,-0.017578125,0.0,0.0,0.0
66519877,52999,0,1.005859375,-0.029296875,0.017578125,-0.01171875,0.0,0.0,0.0
66521129,53000,0,1.001953125,-0.033203125,0.017578125,-0.015625,0.0,0.0,0.0
66522380,53001,0,1.0,-0.02734375,0.015625,-0.01171875,0.0,0.0,0.0
66523630,53002,0,0.99609375,-0.03515625,0.017578125,-0.017578125,0.0,0.0,0.0
66524881,53003,0,0.98828125,-0.0390625,0.009765625,-0.029296875,0.0,0.0,0.0
66526133,53004,0,1.005859375,-0.03515625,0.009765625,-0.025390625,0.0,0.0,0.0
66527384,53005,0,1.00390625,-0.037109375,0.0078125,-0.029296875,0.0,0.0,0.0
66528634,53006,0,1.001953125,-0.033203125,0.009765625,-0.0234375,0.0,0.0,0.0
66529886,53007,0,1.005859375,-0.037109375,0.0078125,-0.029296875,0.0,0.0,0.0
66531136,53008,0,1.0,-0.03125,0.0078125,-0.0234375,0.0,0.0,0.0
66532386,53009,0,1.0078125,-0.03515625,0.015625,-0.01953125,0.0,0.0,0.0
66533638,53010,0,1.0078125,-0.03125,0.00390625,-0.02734375,0.0,0.0,0.0
66534888,53011,0,1.00390625,-0.03515625,0.009765625,-0.025390625,0.0,0.0,0.0
66536139,53012,0,1.005859375,-0.033203125,0.009765625,-0.0234375,0.0,0.0,0.0
66537391,53013,0,1.001953125,-0.03125,0.00390625,-0.02734375,0.0,0.0,0.0
66538641,53014,0,1.001953125,-0.037109375,0.0078125,-0.029296875,0.0,0.0,0.0
66539892,53015,0,1.001953125,-0.029296875,0.017578125,-0.01171875,0.0,0.0,0.0
66541142,53016,0,1.00390625,-0.03125,0.0078125,-0.0234375,0.0,0.0,0.0
66542393,53017,0,1.005859375,-0.029296875,0.0078125,-0.021484375,0.0,0.0,0.0
66543645,53018,0,1.001953125,-0.033203125,0.017578125,-0.015625,0.0,0.0,0.0
66544895,53019,0,1.005859375,-0.03125,0.013671875,-0.017578125,0.0,0.0,0.0
66546147,53020,0,1.0,-0.03125,0.0,-0.03125,0.0,0.0,0.0
66547397,53021,0,1.00390625,-0.021484375,0.0078125,-0.013671875,0.0,0.0,0.0
66548649,53022,0,1.01171875,-0.02734375,0.00390625,-0.0234375,0.0,0.0,0.0
66549899,53023,0,1.0078125,-0.021484375,0.005859375,-0.015625,0.0,0.0,0.0
66551149,53024,0,1.005859375,-0.021484375,0.013671875,-0.0078125,0.0,0.0,0.0
66552399,53025,0,1.00390625,-0.01953125,0.0078125,-0.01171875,0.0,0.0,0.0
66553650,53026,0,1.00390625,-0.015625,0.017578125,0.001953125,0.0,0.0,0.0
66554902,53027,0,1.0078125,-0.017578125,0.017578125,0.0,0.0,0.0,0.0
66556153,53028,0,1.00390625,-0.0234375,0.01171875,-0.01171875,0.0,0.0,0.0
66557404,53029,0,1.00390625,-0.021484375,0.013671875,-0.0078125,0.0,0.0,0.0
66558654,53030,0,1.001953125,-0.01953125,0.01953125,0.0,0.0,0.0,0.0
66559904,53031,0,1.005859375,-0.021484375,0.021484375,0.0,0.0,0.0,0.0
66561155,53032,0,1.0078125,-0.013671875,0.013671875,0.0,0.0,0.0,0.0
66562407,53033,0,1.005859375,-0.015625,0.0234375,0.0078125,0.0,0.0,0.0
66563657,53034,0,1.00390625,-0.01171875,0.025390625,0.013671875,0.0,0.0,0.0
66564909,53035,0,1.001953125,-0.021484375,0.021484375,0.0,0.0,0.0,0.0
66566159,53036,0,1.001953125,-0.017578125,0.01953125,0.001953125,0.0,0.0,0.0
66567409,53037,0,1.001953125,-0.017578125,0.02734375,0.009765625,0.0,0.0,0.0
66568661,53038,0,1.005859375,-0.017578125,0.029296875,0.01171875,0.0,0.0,0.0
66569911,53039,0,1.009765625,-0.017578125,0.01953125,0.001953125,0.0,0.0,0.0
66571161,53040,0,0.99609375,-0.021484375,0.02734375,0.005859375,0.0,0.0,0.0
66572411,53041,0,1.0,-0.01953125,0.029296875,0.009765625,0.0,0.0,0.0
66573663,53042,0,1.005859375,-0.0234375,0.029296875,0.005859375,0.0,0.0,0.0
66574913,53043,0,0.99609375,-0.0234375,0.021484375,-0.001953125,0.0,0.0,0.0
66576164,53044,0,0.994140625,-0.021484375,0.01953125,-0.001953125,0.0,0.0,0.0
66577415,53045,0,1.00390625,-0.0234375,0.021484375,-0.001953125,0.0,0.0,0.0
66578666,53046,0,1.005859375,-0.025390625,0.01953125,-0.005859375,0.0,0.0,0.0
66579916,53047,0,1.01171875,-0.02734375,0.021484375,-0.005859375,0.0,0.0,0.0
66581167,53048,0,1.0078125,-0.029296875,0.021484375,-0.0078125,0.0,0.0,0.0
66582417,53049,0,1.00390625,-0.0234375,0.0234375,0.0,0.0,0.0,0.0
66583668,53050,0,1.005859375,-0.0234375,0.005859375,-0.017578125,0.0,0.0,0.0
66584920,53051,0,1.005859375,-0.029296875,0.021484375,-0.0078125,0.0,0.0,0.0
66586171,53052,0,1.005859375,-0.029296875,0.01953125,-0.009765625,0.0,0.0,0.0
66587421,53053,0,1.0,-0.029296875,0.013671875,-0.015625,0.0,0.0,0.0
66588672,53054,0,0.99609375,-0.03125,0.01953125,-0.01171875,0.0,0.0,0.0
66589924,53055,0,1.005859375,-0.029296875,0.01953125,-0.009765625,0.0,0.0,0.0
66591174,53056,0,1.00390625,-0.029296875,0.01171875,-0.017578125,0.0,0.0,0.0
66592425,53057,0,1.005859375,-0.03125,0.01953125,-0.01171875,0.0,0.0,0.0
66593677,53058,0,1.00390625,-0.033203125,0.015625,-0.017578125,0.0,0.0,0.0
66594927,53059,0,1.005859375,-0.03515625,0.01953125,-0.015625,0.0,0.0,0.0
66596177,53060,0,1.001953125,-0.033203125,0.015625,-0.017578125,0.0,0.0,0.0
66597429,53061,0,1.017578125,-0.033203125,0.015625,-0.017578125,0.0,0.0,0.0
66598679,53062,0,1.001953125,-0.03515625,0.009765625,-0.025390625,0.0,0.0,0.0
66599931,53063,0,0.99609375,-0.033203125,0.01171875,-0.021484375,0.0,0.0,0.0
66601181,53064,0,1.01171875,-0.033203125,0.013671875,-0.01953125,0.0,0.0,0.0
66602431,53065,0,1.005859375,-0.033203125,0.009765625,-0.0234375,0.0,0.0,0.0
66603683,53066,0,1.001953125,-0.033203125,0.013671875,-0.01953125,0.0,0.0,0.0
66604933,53067,0,1.0,-0.033203125,0.01171875,-0.021484375,0.0,0.0,0.0
66606183,53068,0,1.001953125,-0.033203125,0.01171875,-0.021484375,0.0,0.0,0.0
66607434,53069,0,1.005859375,-0.03125,0.0078125,-0.0234375,0.0,0.0,0.0
66608685,53070,0,1.005859375,-0.033203125,0.0078125,-0.025390625,0.0,0.0,0.0
66609936,53071,0,1.001953125,-0.029296875,0.0078125,-0.021484375,0.0,0.0,0.0
66611186,53072,0,1.0078125,-0.029296875,0.013671875,-0.015625,0.0,0.0,0.0
66612437,53073,0,1.00390625,-0.02734375,0.009765625,-0.017578125,0.0,0.0,0.0
66613687,53074,0,1.00390625,-0.02734375,0.0078125,-0.01953125,0.0,0.0,0.0
66614937,53075,0,1.001953125,-0.029296875,0.013671875,-0.015625,0.0,0.0,0.0
66616188,53076,0,1.00390625,-0.029296875,0.009765625,-0.01953125,0.0,0.0,0.0
66617440,53077,0,1.0,-0.033203125,0.005859375,-0.02734375,0.0,0.0,0.0
66618690,53078,0,1.005859375,-0.03125,0.0078125,-0.0234375,0.0,0.0,0.0
66619942,53079,0,1.005859375,-0.03125,0.009765625,-0.021484375,0.0,0.0,0.0
66621193,53080,0,1.005859375,-0.025390625,0.015625,-0.009765625,0.0,0.0,0.0
66622445,53081,0,1.0078125,-0.025390625,0.021484375,-0.00390625,0.0,0.0,0.0
66623695,53082,0,0.998046875,-0.0234375,0.017578125,-0.005859375,0.0,0.0,0.0
66624947,53083,0,1.001953125,-0.025390625,0.013671875,-0.01171875,0.0,0.0,0.0
66626198,53084,0,0.998046875,-0.025390625,0.009765625,-0.015625,0.0,0.0,0.0
66627450,53085,0,1.001953125,-0.021484375,0.015625,-0.005859375,0.0,0.0,0.0
66628700,53086,0,1.0,-0.017578125,0.013671875,-0.00390625,0.0,0.0,0.0
66629952,53087,0,1.00390625,-0.013671875,0.013671875,0.0,0.0,0.0,0.0
66631203,53088,0,1.00390625,-0.01953125,0.01171875,-0.0078125,0.0,0.0,0.0
66632454,53089,0,1.00390625,-0.01953125,0.0078125,-0.01171875,0.0,0.0,0.0
66633705,53090,0,1.00390625,-0.021484375,0.017578125,-0.00390625,0.0,0.0,0.0
66634957,53091,0,1.00390625,-0.0234375,0.015625,-0.0078125,0.0,0.0,0.0
66636207,53092,0,1.00390625,-0.01953125,0.015625,-0.00390625,0.0,0.0,0.0
66637459,53093,0,1.001953125,-0.02734375,0.017578125,-0.009765625,0.0,0.0,0.0
66638709,53094,0,1.005859375,-0.021484375,0.013671875,-0.0078125,0.0,0.0,0.0
66639959,53095,0,0.994140625,-0.025390625,0.017578125,-0.0078125,0.0,0.0,0.0
66641209,53096,0,1.005859375,-0.021484375,0.015625,-0.005859375,0.0,0.0,0.0
66642459,53097,0,0.998046875,-0.025390625,0.015625,-0.009765625,0.0,0.0,0.0
66643711,53098,0,1.001953125,-0.01953125,0.015625,-0.00390625,0.0,0.0,0.0
66644961,53099,0,1.0,-0.0234375,0.013671875,-0.009765625,0.0,0.0,0.0
66646213,53100,0,1.001953125,-0.025390625,0.01953125,-0.005859375,0.0,0.0,0.0
66647464,53101,0,1.005859375,-0.021484375,0.013671875,-0.0078125,0.0,0.0,0.0
66648715,53102,0,1.013671875,-0.021484375,0.017578125,-0.00390625,0.0,0.0,0.0
66649966,53103,0,1.005859375,-0.021484375,0.017578125,-0.00390625,0.0,0.0,0.0
66651216,53104,0,1.01171875,-0.025390625,0.01171875,-0.013671875,0.0,0.0,0.0
66652467,53105,0,1.0078125,-0.01953125,0.017578125,-0.001953125,0.0,0.0,0.0
66653718,53106,0,1.005859375,-0.0234375,0.0234375,0.0,0.0,0.0,0.0
66654968,53107,0,1.01171875,-0.029296875,0.017578125,-0.01171875,0.0,0.0,0.0
66656219,53108,0,0.99609375,-0.02734375,0.015625,-0.01171875,0.0,0.0,0.0
66657470,53109,0,1.0,-0.029296875,0.01953125,-0.009765625,0.0,0.0,0.0
66658721,53110,0,1.001953125,-0.025390625,0.017578125,-0.0078125,0.0,0.0,0.0
66659971,53111,0,1.00390625,-0.029296875,0.013671875,-0.015625,0.0,0.0,0.0
66661223,53112,0,1.001953125,-0.02734375,0.01171875,-0.015625,0.0,0.0,0.0
66662473,53113,0,1.0,-0.02734375,0.017578125,-0.009765625,0.0,0.0,0.0
66663723,53114,0,1.009765625,-0.029296875,0.01953125,-0.009765625,0.0,0.0,0.0
66664975,53115,0,1.0078125,-0.03125,0.013671875,-0.017578125,0.0,0.0,0.0
66666226,53116,0,1.005859375,-0.02734375,0.015625,-0.01171875,0.0,0.0,0.0
66667476,53117,0,0.998046875,-0.033203125,0.01953125,-0.013671875,0.0,0.0,0.0
66668728,53118,0,1.00390625,-0.029296875,0.015625,-0.013671875,0.0,0.0,0.0
66669979,53119,0,1.001953125,-0.03125,0.01953125,-0.01171875,0.0,0.0,0.0
66671229,53120,0,1.0078125,-0.033203125,0.015625,-0.017578125,0.0,0.0,0.0
66672481,53121,0,1.00390625,-0.033203125,0.01171875,-0.021484375,0.0,0.0,0.0
66673731,53122,0,1.001953125,-0.029296875,0.01953125,-0.009765625,0.0,0.0,0.0
66674981,53123,0,1.005859375,-0.03125,0.013671875,-0.017578125,0.0,0.0,0.0
66676232,53124,0,1.005859375,-0.029296875,0.017578125,-0.01171875,0.0,0.0,0.0
66677483,53125,0,1.005859375,-0.029296875,0.01171875,-0.017578125,0.0,0.0,0.0
66678734,53126,0,0.994140625,-0.029296875,0.017578125,-0.01171875,0.0,0.0,0.0
66679986,53127,0,0.998046875,-0.025390625,0.017578125,-0.0078125,0.0,0.0,0.0
66681236,53128,0,1.005859375,-0.03515625,0.009765625,-0.025390625,0.0,0.0,0.0
66682486,53129,0,1.0078125,-0.029296875,0.01171875,-0.017578125,0.0,0.0,0.0
66683737,53130,0,1.0,-0.02734375,0.009765625,-0.017578125,0.0,0.0,0.0
66684987,53131,0,0.998046875,-0.029296875,0.021484375,-0.0078125,0.0,0.0,0.0
66686238,53132,0,1.00390625,-0.029296875,0.01953125,-0.009765625,0.0,0.0,0.0
66687489,53133,0,1.001953125,-0.0234375,0.01953125,-0.00390625,0.0,0.0,0.0
66688740,53134,0,1.001953125,-0.0234375,0.01171875,-0.01171875,0.0,0.0,0.0
66689991,53135,0,1.001953125,-0.0234375,0.017578125,-0.005859375,0.0,0.0,0.0
66691241,53136,0,1.005859375,-0.0234375,0.017578125,-0.005859375,0.0,0.0,0.0
66692492,53137,0,1.00390625,-0.02734375,0.017578125,-0.009765625,0.0,0.0,0.0
66693744,53138,0,1.01171875,-0.02734375,0.017578125,-0.009765625,0.0,0.0,0.0
66694994,53139,0,1.001953125,-0.0234375,0.015625,-0.0078125,0.0,0.0,0.0
66696245,53140,0,1.0,-0.02734375,0.017578125,-0.009765625,0.0,0.0,0.0
66697496,53141,0,0.998046875,-0.025390625,0.017578125,-0.0078125,0.0,0.0,0.0
66698747,53142,0,1.001953125,-0.025390625,0.021484375,-0.00390625,0.0,0.0,0.0
66699998,53143,0,1.005859375,-0.029296875,0.01953125,-0.009765625,0.0,0.0,0.0
66701249,53144,0,1.01171875,-0.0234375,0.015625,-0.0078125,0.0,0.0,0.0
66702499,53145,0,1.00390625,-0.025390625,0.01171875,-0.013671875,0.0,0.0,0.0
66703751,53146,0,1.005859375,-0.0234375,0.013671875,-0.009765625,0.0,0.0,0.0
66705002,53147,0,1.00390625,-0.03125,0.0078125,-0.0234375,0.0,0.0,0.0
66706253,53148,0,1.001953125,-0.025390625,0.01953125,-0.005859375,0.0,0.0,0.0
66707503,53149,0,1.00390625,-0.0234375,0.017578125,-0.005859375,0.0,0.0,0.0
66708755,53150,0,1.009765625,-0.015625,0.0234375,0.0078125,0.0,0.0,0.0
66710005,53151,0,1.0078125,-0.01953125,0.021484375,0.001953125,0.0,0.0,0.0
66711256,53152,0,1.005859375,-0.021484375,0.017578125,-0.00390625,0.0,0.0,0.0
66712506,53153,0,1.013671875,-0.021484375,0.013671875,-0.0078125,0.0,0.0,0.0
66713757,53154,0,1.005859375,-0.025390625,0.015625,-0.009765625,0.0,0.0,0.0
66715008,53155,0,1.0,-0.0234375,0.015625,-0.0078125,0.0,0.0,0.0
66716258,53156,0,1.001953125,-0.021484375,0.021484375,0.0,0.0,0.0,0.0
66717508,53157,0,1.00390625,-0.01953125,0.01171875,-0.0078125,0.0,0.0,0.0
66718759,53158,0,1.005859375,-0.0234375,0.015625,-0.0078125,0.0,0.0,0.0
66720009,53159,0,1.00390625,-0.0234375,0.01953125,-0.00390625,0.0,0.0,0.0
66721259,53160,0,1.0,-0.01953125,0.01171875,-0.0078125,0.0,0.0,0.0
66722510,53161,0,1.00390625,-0.0234375,0.01171875,-0.01171875,0.0,0.0,0.0
66723762,53162,0,1.00390625,-0.025390625,0.0234375,-0.001953125,0.0,0.0,0.0
66725012,53163,0,1.00390625,-0.025390625,0.013671875,-0.01171875,0.0,0.0,0.0
66726271,53164,0,1.00390625,-0.025390625,0.017578125,-0.0078125,0.0,0.0,0.0
66727521,53165,0,1.0,-0.02734375,0.009765625,-0.017578125,0.0,0.0,0.0
66728773,53166,0,1.01171875,-0.0234375,0.015625,-0.0078125,0.0,0.0,0.0
66730023,53167,0,0.998046875,-0.029296875,0.017578125,-0.01171875,0.0,0.0,0.0
66731274,53168,0,1.009765625,-0.025390625,0.013671875,-0.01171875,0.0,0.0,0.0
66732525,53169,0,1.009765625,-0.025390625,0.015625,-0.009765625,0.0,0.0,0.0
66733776,53170,0,1.017578125,-0.0234375,0.01171875,-0.01171875,0.0,0.0,0.0
66735026,53171,0,1.013671875,-0.02734375,0.01953125,-0.0078125,0.0,0.0,0.0
66736276,53172,0,1.005859375,-0.02734375,0.015625,-0.01171875,0.0,0.0,0.0
66737527,53173,0,1.00390625,-0.03125,0.01953125,-0.01171875,0.0,0.0,0.0
66738778,53174,0,1.00390625,-0.03125,0.009765625,-0.021484375,0.0,0.0,0.0
66740029,53175,0,1.005859375,-0.02734375,0.013671875,-0.013671875,0.0,0.0,0.0
66741280,53176,0,1.00390625,-0.037109375,0.01171875,-0.025390625,0.0,0.0,0.0
66742531,53177,0,1.0078125,-0.033203125,0.015625,-0.017578125,0.0,0.0,0.0
66743783,53178,0,1.0,-0.03125,0.013671875,-0.017578125,0.0,0.0,0.0
66745034,53179,0,1.0078125,-0.03125,0.009765625,-0.021484375,0.0,0.0,0.0
66746286,53180,0,1.005859375,-0.033203125,0.017578125,-0.015625,0.0,0.0,0.0
66747537,53181,0,1.001953125,-0.033203125,0.013671875,-0.01953125,0.0,0.0,0.0
66748789,53182,0,1.00390625,-0.03515625,0.017578125,-0.017578125,0.0,0.0,0.0
66750039,53183,0,1.0,-0.03125,0.017578125,-0.013671875,0.0,0.0,0.0
66751289,53184,0,1.005859375,-0.037109375,0.015625,-0.021484375,0.0,0.0,0.0
66752541,53185,0,1.001953125,-0.03515625,0.017578125,-0.017578125,0.0,0.0,0.0
66753792,53186,0,1.0078125,-0.037109375,0.015625,-0.021484375,0.0,0.0,0.0
66755044,53187,0,1.00390625,-0.02734375,0.015625,-0.01171875,0.0,0.0,0.0
66756294,53188,0,0.99609375,-0.0234375,0.017578125,-0.005859375,0.0,0.0,0.0
66757544,53189,0,1.00390625,-0.029296875,0.01953125,-0.009765625,0.0,0.0,0.0
66758795,53190,0,1.015625,-0.025390625,0.013671875,-0.01171875,0.0,0.0,0.0
66760045,53191,0,1.00390625,-0.025390625,0.013671875,-0.01171875,0.0,0.0,0.0
66761295,53192,0,1.0078125,-0.02734375,0.017578125,-0.009765625,0.0,0.0,0.0
66762546,53193,0,1.01953125,-0.021484375,0.01953125,-0.001953125,0.0,0.0,0.0
66763797,53194,0,1.001953125,-0.03125,0.01171875,-0.01953125,0.0,0.0,0.0
66765048,53195,0,0.998046875,-0.025390625,0.013671875,-0.01171875,0.0,0.0,0.0
66766299,53196,0,1.0,-0.02734375,0.01953125,-0.0078125,0.0,0.0,0.0
66767550,53197,0,1.005859375,-0.02734375,0.013671875,-0.013671875,0.0,0.0,0.0
66768800,53198,0,1.00390625,-0.0234375,0.01171875,-0.01171875,0.0,0.0,0.0
66770052,53199,0,1.001953125,-0.021484375,0.013671875,-0.0078125,0.0,0.0,0.0
66771303,53200,0,1.0078125,-0.021484375,0.0078125,-0.013671875,0.0,0.0,0.0
66772554,53201,0,1.0078125,-0.025390625,0.01171875,-0.013671875,0.0,0.0,0.0
66773805,53202,0,1.009765625,-0.01953125,0.015625,-0.00390625,0.0,0.0,0.0
66775057,53203,0,1.0078125,-0.025390625,0.021484375,-0.00390625,0.0,0.0,0.0
66776308,53204,0,1.001953125,-0.01953125,0.015625,-0.00390625,0.0,0.0,0.0
66777560,53205,0,1.001953125,-0.01953125,0.01953125,0.0,0.0,0.0,0.0
66778811,53206,0,1.005859375,-0.021484375,0.01171875,-0.009765625,0.0,0.0,0.0
66780063,53207,0,0.998046875,-0.025390625,0.01953125,-0.005859375,0.0,0.0,0.0
66781314,53208,0,1.0,-0.021484375,0.015625,-0.005859375,0.0,0.0,0.0
66782565,53209,0,1.0078125,-0.01953125,0.0234375,0.00390625,0.0,0.0,0.0
66783816,53210,0,1.00390625,-0.025390625,0.017578125,-0.0078125,0.0,0.0,0.0
66785066,53211,0,1.00390625,-0.021484375,0.013671875,-0.0078125,0.0,0.0,0.0
66786318,53212,0,1.013671875,-0.02734375,0.01171875,-0.015625,0.0,0.0,0.0
66787569,53213,0,1.01171875,-0.02734375,0.017578125,-0.009765625,0.0,0.0,0.0
66788819,53214,0,1.0,-0.025390625,0.013671875,-0.01171875,0.0,0.0,0.0
66790070,53215,0,1.0,-0.0234375,0.017578125,-0.005859375,0.0,0.0,0.0
66791321,53216,0,1.0,-0.025390625,0.01953125,-0.005859375,0.0,0.0,0.0
66792572,53217,0,1.00390625,-0.025390625,0.021484375,-0.00390625,0.0,0.0,0.0
66793823,53218,0,1.005859375,-0.025390625,0.017578125,-0.0078125,0.0,0.0,0.0
66795074,53219,0,1.001953125,-0.0234375,0.01171875,-0.01171875,0.0,0.0,0.0
66796325,53220,0,1.001953125,-0.02734375,0.021484375,-0.005859375,0.0,0.0,0.0
66797575,53221,0,0.998046875,-0.021484375,0.017578125,-0.00390625,0.0,0.0,0.0
66798825,53222,0,1.00390625,-0.03125,0.01953125,-0.01171875,0.0,0.0,0.0
66800076,53223,0,1.00390625,-0.025390625,0.01171875,-0.013671875,0.0,0.0,0.0
66801326,53224,0,0.998046875,-0.02734375,0.015625,-0.01171875,0.0,0.0,0.0
66802577,53225,0,1.0,-0.029296875,0.01953125,-0.009765625,0.0,0.0,0.0
66803828,53226,0,1.009765625,-0.0234375,0.015625,-0.0078125,0.0,0.0,0.0
66805078,53227,0,0.99609375,-0.02734375,0.013671875,-0.013671875,0.0,0.0,0.0
66806329,53228,0,1.0,-0.03125,0.01953125,-0.01171875,0.0,0.0,0.0
66807581,53229,0,1.0,-0.033203125,0.01171875,-0.021484375,0.0,0.0,0.0
66808833,53230,0,1.001953125,-0.03515625,0.015625,-0.01953125,0.0,0.0,0.0
66810083,53231,0,1.00390625,-0.029296875,0.01953125,-0.009765625,0.0,0.0,0.0
66811333,53232,0,1.013671875,-0.029296875,0.013671875,-0.015625,0.0,0.0,0.0
66812584,53233,0,0.990234375,-0.02734375,0.017578125,-0.009765625,0.0,0.0,0.0
66813835,53234,0,1.005859375,-0.029296875,0.01171875,-0.017578125,0.0,0.0,0.0
66815085,53235,0,1.0078125,-0.025390625,0.01171875,-0.013671875,0.0,0.0,0.0
66816336,53236,0,1.00390625,-0.0234375,0.015625,-0.0078125,0.0,0.0,0.0
66817587,53237,0,0.994140625,-0.02734375,0.015625,-0.01171875,0.0,0.0,0.0
66818838,53238,0,1.0078125,-0.033203125,0.015625,-0.017578125,0.0,0.0,0.0
66820090,53239,0,1.0,-0.03125,0.013671875,-0.017578125,0.0,0.0,0.0
66821341,53240,0,1.0,-0.025390625,0.015625,-0.009765625,0.0,0.0,0.0
66822592,53241,0,1.0,-0.02734375,0.009765625,-0.017578125,0.0,0.0,0.0
66823844,53242,0,1.005859375,-0.03125,0.021484375,-0.009765625,0.0,0.0,0.0
66825095,53243,0,1.005859375,-0.02734375,0.01171875,-0.015625,0.0,0.0,0.0
66826346,53244,0,1.005859375,-0.02734375,0.01953125,-0.0078125,0.0,0.0,0.0
66827597,53245,0,1.00390625,-0.02734375,0.013671875,-0.013671875,0.0,0.0,0.0
66828849,53246,0,1.00390625,-0.029296875,0.01953125,-0.009765625,0.0,0.0,0.0
66830099,53247,0,1.00390625,-0.025390625,0.013671875,-0.01171875,0.0,0.0,0.0
66831351,53248,0,1.00390625,-0.02734375,0.015625,-0.01171875,0.0,0.0,0.0
66832602,53249,0,1.009765625,-0.02734375,0.017578125,-0.009765625,0.0,0.0,0.0
66833854,53250,0,1.001953125,-0.021484375,0.01953125,-0.001953125,0.0,0.0,0.0
66835104,53251,0,1.005859375,-0.02734375,0.021484375,-0.005859375,0.0,0.0,0.0
66836354,53252,0,1.0078125,-0.025390625,0.013671875,-0.01171875,0.0,0.0,0.0
66837605,53253,0,1.005859375,-0.021484375,0.013671875,-0.0078125,0.0,0.0,0.0
66838855,53254,0,1.001953125,-0.029296875,0.015625,-0.013671875,0.0,0.0,0.0
66840107,53255,0,1.00390625,-0.0234375,0.015625,-0.0078125,0.0,0.0,0.0
66841358,53256,0,1.005859375,-0.0234375,0.01171875,-0.01171875,0.0,0.0,0.0
66842609,53257,0,1.001953125,-0.025390625,0.017578125,-0.0078125,0.0,0.0,0.0
66843859,53258,0,1.001953125,-0.0234375,0.015625,-0.0078125,0.0,0.0,0.0
66845111,53259,0,1.00390625,-0.0234375,0.015625,-0.0078125,0.0,0.0,0.0
66846362,53260,0,1.0,-0.0234375,0.013671875,-0.009765625,0.0,0.0,0.0
66847613,53261,0,1.0,-0.021484375,0.01953125,-0.001953125,0.0,0.0,0.0
66848865,53262,0,1.00390625,-0.0234375,0.017578125,-0.005859375,0.0,0.0,0.0
66850115,53263,0,1.0,-0.02734375,0.009765625,-0.017578125,0.0,0.0,0.0
66851365,53264,0,1.00390625,-0.02734375,0.01953125,-0.0078125,0.0,0.0,0.0
66852617,53265,0,1.005859375,-0.0234375,0.013671875,-0.009765625,0.0,0.0,0.0
66853867,53266,0,1.009765625,-0.02734375,0.015625,-0.01171875,0.0,0.0,0.0
66855118,53267,0,1.005859375,-0.02734375,0.013671875,-0.013671875,0.0,0.0,0.0
66856369,53268,0,1.0,-0.02734375,0.015625,-0.01171875,0.0,0.0,0.0
66857620,53269,0,1.0,-0.029296875,0.015625,-0.013671875,0.0,0.0,0.0
66858871,53270,0,1.005859375,-0.025390625,0.015625,-0.009765625,0.0,0.0,0.0
66860123,53271,0,0.998046875,-0.0234375,0.0234375,0.0,0.0,0.0,0.0
66861374,53272,0,1.0078125,-0.02734375,0.01171875,-0.015625,0.0,0.0,0.0
66862624,53273,0,1.009765625,-0.02734375,0.021484375,-0.005859375,0.0,0.0,0.0
66863875,53274,0,0.998046875,-0.029296875,0.009765625,-0.01953125,0.0,0.0,0.0
66865125,53275,0,0.994140625,-0.025390625,0.01953125,-0.005859375,0.0,0.0,0.0
66866375,53276,0,1.015625,-0.033203125,0.01953125,-0.013671875,0.0,0.0,0.0
66867626,53277,0,1.009765625,-0.03125,0.015625,-0.015625,0.0,0.0,0.0
66868877,53278,0,1.009765625,-0.03125,0.017578125,-0.013671875,0.0,0.0,0.0
66870129,53279,0,0.99609375,-0.029296875,0.021484375,-0.0078125,0.0,0.0,0.0
66871380,53280,0,1.0078125,-0.029296875,0.015625,-0.013671875,0.0,0.0,0.0
66872630,53281,0,0.99609375,-0.03125,0.01953125,-0.01171875,0.0,0.0,0.0
66873881,53282,0,1.0078125,-0.029296875,0.01953125,-0.009765625,0.0,0.0,0.0
66875133,53283,0,1.01171875,-0.03125,0.01953125,-0.01171875,0.0,0.0,0.0
66876384,53284,0,1.001953125,-0.029296875,0.017578125,-0.01171875,0.0,0.0,0.0
66877634,53285,0,1.0078125,-0.02734375,0.017578125,-0.009765625,0.0,0.0,0.0
66878886,53286,0,0.998046875,-0.029296875,0.017578125,-0.01171875,0.0,0.0,0.0
66880136,53287,0,1.001953125,-0.02734375,0.015625,-0.01171875,0.0,0.0,0.0
66881386,53288,0,1.0078125,-0.029296875,0.015625,-0.013671875,0.0,0.0,0.0
66882638,53289,0,1.0078125,-0.029296875,0.013671875,-0.015625,0.0,0.0,0.0
66883888,53290,0,1.0,-0.029296875,0.013671875,-0.015625,0.0,0.0,0.0
66885139,53291,0,1.0078125,-0.02734375,0.013671875,-0.013671875,0.0,0.0,0.0
66886391,53292,0,1.001953125,-0.02734375,0.017578125,-0.009765625,0.0,0.0,0.0
66887641,53293,0,1.00390625,-0.0234375,0.009765625,-0.013671875,0.0,0.0,0.0
66888892,53294,0,1.0078125,-0.029296875,0.01171875,-0.017578125,0.0,0.0,0.0
66890142,53295,0,1.0078125,-0.025390625,0.015625,-0.009765625,0.0,0.0,0.0
66891393,53296,0,1.005859375,-0.029296875,0.013671875,-0.015625,0.0,0.0,0.0
66892645,53297,0,0.99609375,-0.02734375,0.01171875,-0.015625,0.0,0.0,0.0
66893895,53298,0,1.005859375,-0.02734375,-0.0390625,-0.06640625,0.0,0.0,0.0
66895147,53299,0,1.01171875,-0.029296875,0.013671875,-0.015625,0.0,0.0,0.0
66896397,53300,0,1.001953125,-0.025390625,0.013671875,-0.01171875,0.0,0.0,0.0
66897649,53301,0,1.005859375,-0.0234375,0.013671875,-0.009765625,0.0,0.0,0.0
66898899,53302,0,1.00390625,-0.025390625,0.015625,-0.009765625,0.0,0.0,0.0
66900149,53303,0,1.00390625,-0.0234375,0.017578125,-0.005859375,0.0,0.0,0.0
66901399,53304,0,1.00390625,-0.0234375,0.009765625,-0.013671875,0.0,0.0,0.0
66902650,53305,0,1.001953125,-0.025390625,0.013671875,-0.01171875,0.0,0.0,0.0
66903902,53306,0,1.001953125,-0.025390625,0.013671875,-0.01171875,0.0,0.0,0.0
66905153,53307,0,0.998046875,-0.021484375,0.01953125,-0.001953125,0.0,0.0,0.0
66906404,53308,0,1.001953125,-0.021484375,0.017578125,-0.00390625,0.0,0.0,0.0
66907654,53309,0,1.0,-0.0234375,0.017578125,-0.005859375,0.0,0.0,0.0
66908904,53310,0,1.0078125,-0.01953125,0.015625,-0.00390625,0.0,0.0,0.0
66910155,53311,0,1.005859375,-0.0234375,0.0078125,-0.015625,0.0,0.0,0.0
66911407,53312,0,1.00390625,-0.025390625,0.017578125,-0.0078125,0.0,0.0,0.0
66912657,53313,0,1.005859375,-0.02734375,0.021484375,-0.005859375,0.0,0.0,0.0
66913909,53314,0,1.00390625,-0.021484375,0.01953125,-0.001953125,0.0,0.0,0.0
66915159,53315,0,1.009765625,-0.021484375,0.015625,-0.005859375,0.0,0.0,0.0
66916409,53316,0,0.998046875,-0.02734375,0.01953125,-0.0078125,0.0,0.0,0.0
66917661,53317,0,1.005859375,-0.0234375,0.01953125,-0.00390625,0.0,0.0,0.0
66918911,53318,0,1.015625,-0.0234375,0.01171875,-0.01171875,0.0,0.0,0.0
66920161,53319,0,1.00390625,-0.02734375,0.017578125,-0.009765625,0.0,0.0,0.0
66921411,53320,0,1.009765625,-0.029296875,0.009765625,-0.01953125,0.0,0.0,0.0
66922663,53321,0,1.0078125,-0.025390625,0.017578125,-0.0078125,0.0,0.0,0.0
66923913,53322,0,0.9921875,-0.0234375,0.017578125,-0.005859375,0.0,0.0,0.0
66925164,53323,0,1.001953125,-0.03125,0.013671875,-0.017578125,0.0,0.0,0.0
66926415,53324,0,0.99609375,-0.03125,0.013671875,-0.017578125,0.0,0.0,0.0
66927666,53325,0,1.00390625,-0.0234375,0.015625,-0.0078125,0.0,0.0,0.0
66928916,53326,0,1.0,-0.025390625,0.013671875,-0.01171875,0.0,0.0,0.0
66930167,53327,0,1.0,-0.02734375,0.013671875,-0.013671875,0.0,0.0,0.0
66931417,53328,0,1.001953125,-0.02734375,0.013671875,-0.013671875,0.0,0.0,0.0
66932668,53329,0,1.0,-0.029296875,0.0234375,-0.005859375,0.0,0.0,0.0
66933920,53330,0,1.0,-0.0234375,0.017578125,-0.005859375,0.0,0.0,0.0
66935171,53331,0,1.001953125,-0.029296875,0.01171875,-0.017578125,0.0,0.0,0.0
66936421,53332,0,1.0,-0.02734375,0.017578125,-0.009765625,0.0,0.0,0.0
66937672,53333,0,1.0078125,-0.029296875,0.01953125,-0.009765625,0.0,0.0,0.0
66938924,53334,0,1.005859375,-0.029296875,0.013671875,-0.015625,0.0,0.0,0.0
66940174,53335,0,1.0078125,-0.033203125,0.013671875,-0.01953125,0.0,0.0,0.0
66941425,53336,0,1.001953125,-0.021484375,0.0078125,-0.013671875,0.0,0.0,0.0
66942677,53337,0,1.0078125,-0.03515625,0.005859375,-0.029296875,0.0,0.0,0.0
66943927,53338,0,0.9921875,-0.02734375,0.01171875,-0.015625,0.0,0.0,0.0
66945177,53339,0,1.0078125,-0.03515625,0.017578125,-0.017578125,0.0,0.0,0.0
66946429,53340,0,1.0,-0.03125,0.01171875,-0.01953125,0.0,0.0,0.0
66947679,53341,0,1.009765625,-0.029296875,0.009765625,-0.01953125,0.0,0.0,0.0
66948931,53342,0,1.0078125,-0.025390625,0.015625,-0.009765625,0.0,0.0,0.0
66950181,53343,0,1.0078125,-0.02734375,0.01953125,-0.0078125,0.0,0.0,0.0
66951431,53344,0,1.001953125,-0.03125,0.01171875,-0.01953125,0.0,0.0,0.0
66952683,53345,0,1.001953125,-0.025390625,0.017578125,-0.0078125,0.0,0.0,0.0
66953933,53346,0,1.001953125,-0.029296875,0.015625,-0.013671875,0.0,0.0,0.0
66955183,53347,0,1.0,-0.025390625,0.013671875,-0.01171875,0.0,0.0,0.0
66956434,53348,0,1.005859375,-0.03125,0.013671875,-0.017578125,0.0,0.0,0.0
66957685,53349,0,1.005859375,-0.03125,0.009765625,-0.021484375,0.0,0.0,0.0
66958936,53350,0,1.00390625,-0.02734375,0.01171875,-0.015625,0.0,0.0,0.0
66960186,53351,0,0.998046875,-0.025390625,0.015625,-0.009765625,0.0,0.0,0.0
66961437,53352,0,0.994140625,-0.02734375,0.01953125,-0.0078125,0.0,0.0,0.0
66962687,53353,0,1.00390625,-0.0234375,0.0078125,-0.015625,0.0,0.0,0.0
66963937,53354,0,1.0,-0.02734375,0.005859375,-0.021484375,0.0,0.0,0.0
66965188,53355,0,1.0078125,-0.029296875,0.013671875,-0.015625,0.0,0.0,0.0
66966440,53356,0,1.001953125,-0.02734375,0.00390625,-0.0234375,0.0,0.0,0.0
66967690,53357,0,1.0,-0.0234375,0.0078125,-0.015625,0.0,0.0,0.0
66968942,53358,0,0.994140625,-0.02734375,0.015625,-0.01171875,0.0,0.0,0.0
66970193,53359,0,1.00390625,-0.02734375,0.015625,-0.01171875,0.0,0.0,0.0
66971445,53360,0,0.998046875,-0.025390625,0.015625,-0.009765625,0.0,0.0,0.0
66972695,53361,0,1.0078125,-0.02734375,0.005859375,-0.021484375,0.0,0.0,0.0
66973947,53362,0,1.0078125,-0.03125,0.01171875,-0.01953125,0.0,0.0,0.0
66975198,53363,0,1.01171875,-0.025390625,0.015625,-0.009765625,0.0,0.0,0.0
66976450,53364,0,1.005859375,-0.021484375,0.015625,-0.005859375,0.0,0.0,0.0
66977700,53365,0,0.99609375,-0.0234375,0.009765625,-0.013671875,0.0,0.0,0.0
66978952,53366,0,1.0,-0.025390625,0.015625,-0.009765625,0.0,0.0,0.0
66980203,53367,0,1.0078125,-0.0234375,0.013671875,-0.009765625,0.0,0.0,0.0
66981454,53368,0,1.001953125,-0.0234375,0.015625,-0.0078125,0.0,0.0,0.0
66982705,53369,0,1.001953125,-0.0234375,0.0234375,0.0,0.0,0.0,0.0
66983957,53370,0,1.009765625,-0.0234375,0.015625,-0.0078125,0.0,0.0,0.0
66985207,53371,0,1.005859375,-0.0234375,0.013671875,-0.009765625,0.0,0.0,0.0
66986459,53372,0,1.009765625,-0.021484375,0.015625,-0.005859375,0.0,0.0,0.0
66987709,53373,0,1.0078125,-0.0234375,0.017578125,-0.005859375,0.0,0.0,0.0
66988959,53374,0,1.0,-0.0234375,0.017578125,-0.005859375,0.0,0.0,0.0
66990209,53375,0,1.001953125,-0.0234375,0.01953125,-0.00390625,0.0,0.0,0.0
66991459,53376,0,1.0,-0.0234375,0.01953125,-0.00390625,0.0,0.0,0.0
66992711,53377,0,1.009765625,-0.0234375,0.015625,-0.0078125,0.0,0.0,0.0
66993961,53378,0,1.015625,-0.0234375,0.015625,-0.0078125,0.0,0.0,0.0
66995213,53379,0,1.009765625,-0.021484375,0.021484375,0.0,0.0,0.0,0.0
66996464,53380,0,1.0,-0.0234375,0.017578125,-0.005859375,0.0,0.0,0.0
66997715,53381,0,1.00390625,-0.01953125,0.015625,-0.00390625,0.0,0.0,0.0
66998966,53382,0,0.99609375,-0.0234375,0.021484375,-0.001953125,0.0,0.0,0.0
67000216,53383,0,1.0,-0.01953125,0.01171875,-0.0078125,0.0,0.0,0.0
67001467,53384,0,1.005859375,-0.0234375,0.017578125,-0.005859375,0.0,0.0,0.0
67002718,53385,0,1.0078125,-0.025390625,0.021484375,-0.00390625,0.0,0.0,0.0
67003968,53386,0,1.005859375,-0.021484375,0.01953125,-0.001953125,0.0,0.0,0.0
67005219,53387,0,1.005859375,-0.025390625,0.01953125,-0.005859375,0.0,0.0,0.0
67006470,53388,0,1.0,-0.02734375,0.015625,-0.01171875,0.0,0.0,0.0
67007721,53389,0,1.001953125,-0.02734375,0.015625,-0.01171875,0.0,0.0,0.0
67008971,53390,0,1.0,-0.02734375,0.021484375,-0.005859375,0.0,0.0,0.0
67010223,53391,0,1.00390625,-0.029296875,0.01171875,-0.017578125,0.0,0.0,0.0
67011473,53392,0,1.005859375,-0.0234375,0.017578125,-0.005859375,0.0,0.0,0.0
67012723,53393,0,1.001953125,-0.03125,0.01953125,-0.01171875,0.0,0.0,0.0
67013975,53394,0,1.001953125,-0.029296875,0.013671875,-0.015625,0.0,0.0,0.0
67015226,53395,0,1.001953125,-0.029296875,0.017578125,-0.01171875,0.0,0.0,0.0
67016476,53396,0,0.998046875,-0.0234375,0.01953125,-0.00390625,0.0,0.0,0.0
67017728,53397,0,0.994140625,-0.02734375,0.017578125,-0.009765625,0.0,0.0,0.0
67018979,53398,0,1.0,-0.029296875,0.01953125,-0.009765625,0.0,0.0,0.0
67020229,53399,0,1.00390625,-0.03515625,0.01171875,-0.0234375,0.0,0.0,0.0
67021481,53400,0,1.001953125,-0.02734375,0.01953125,-0.0078125,0.0,0.0,0.0
67022731,53401,0,1.009765625,-0.029296875,0.01171875,-0.017578125,0.0,0.0,0.0
67023981,53402,0,1.013671875,-0.0234375,0.017578125,-0.005859375,0.0,0.0,0.0
67025232,53403,0,1.00390625,-0.03515625,0.017578125,-0.017578125,0.0,0.0,0.0
67026483,53404,0,0.994140625,-0.02734375,0.015625,-0.01171875,0.0,0.0,0.0
67027734,53405,0,0.99609375,-0.02734375,0.01953125,-0.0078125,0.0,0.0,0.0
67028986,53406,0,0.994140625,-0.025390625,0.009765625,-0.015625,0.0,0.0,0.0
67030236,53407,0,1.0,-0.029296875,0.015625,-0.013671875,0.0,0.0,0.0
67031486,53408,0,1.0078125,-0.02734375,0.015625,-0.01171875,0.0,0.0,0.0
67032737,53409,0,1.0078125,-0.029296875,0.0078125,-0.021484375,0.0,0.0,0.0
67033987,53410,0,1.001953125,-0.025390625,0.01171875,-0.013671875,0.0,0.0,0.0
67035238,53411,0,1.005859375,-0.029296875,0.01171875,-0.017578125,0.0,0.0,0.0
67036489,53412,0,1.001953125,-0.02734375,0.015625,-0.01171875,0.0,0.0,0.0
67037740,53413,0,1.001953125,-0.025390625,0.013671875,-0.01171875,0.0,0.0,0.0
67038991,53414,0,0.994140625,-0.02734375,0.009765625,-0.017578125,0.0,0.0,0.0
67040241,53415,0,1.009765625,-0.025390625,0.01953125,-0.005859375,0.0,0.0,0.0
67041492,53416,0,1.005859375,-0.029296875,0.01171875,-0.017578125,0.0,0.0,0.0
67042744,53417,0,1.009765625,-0.02734375,0.009765625,-0.017578125,0.0,0.0,0.0
67043994,53418,0,1.001953125,-0.025390625,0.01171875,-0.013671875,0.0,0.0,0.0
67045245,53419,0,1.005859375,-0.029296875,0.013671875,-0.015625,0.0,0.0,0.0
67046496,53420,0,1.009765625,-0.02734375,0.0078125,-0.01953125,0.0,0.0,0.0
67047747,53421,0,1.0078125,-0.0234375,0.015625,-0.0078125,0.0,0.0,0.0
67048998,53422,0,1.0,-0.025390625,0.015625,-0.009765625,0.0,0.0,0.0
67050249,53423,0,1.005859375,-0.02734375,0.015625,-0.01171875,0.0,0.0,0.0
67051499,53424,0,1.00390625,-0.02734375,0.00390625,-0.0234375,0.0,0.0,0.0
67052751,53425,0,1.005859375,-0.02734375,0.021484375,-0.005859375,0.0,0.0,0.0
67054002,53426,0,1.00390625,-0.029296875,0.01953125,-0.009765625,0.0,0.0,0.0
67055253,53427,0,0.998046875,-0.03125,0.015625,-0.015625,0.0,0.0,0.0
67056503,53428,0,1.01171875,-0.0234375,0.0078125,-0.015625,0.0,0.0,0.0
67057755,53429,0,1.005859375,-0.021484375,0.01953125,-0.001953125,0.0,0.0,0.0
67059005,53430,0,1.001953125,-0.021484375,0.01171875,-0.009765625,0.0,0.0,0.0
67060256,53431,0,1.009765625,-0.025390625,0.009765625,-0.015625,0.0,0.0,0.0
67061506,53432,0,1.005859375,-0.021484375,0.013671875,-0.0078125,0.0,0.0,0.0
67062757,53433,0,1.001953125,-0.02734375,0.015625,-0.01171875,0.0,0.0,0.0
67064008,53434,0,1.005859375,-0.0234375,0.01953125,-0.00390625,0.0,0.0,0.0
67065258,53435,0,0.99609375,-0.02734375,0.015625,-0.01171875,0.0,0.0,0.0
67066508,53436,0,1.00390625,-0.021484375,0.01171875,-0.009765625,0.0,0.0,0.0
67067759,53437,0,1.0,-0.02734375,0.013671875,-0.013671875,0.0,0.0,-25546280960.0
67070259,53439,0,1.001953125,-0.025390625,0.017578125,-0.0078125,0.0,0.0,0.0
67071510,53440,0,1.005859375,-0.03125,0.01171875,-0.01953125,0.0,0.0,0.0
67072762,53441,0,1.005859375,-0.02734375,0.015625,-0.01171875,0.0,0.0,0.0
67074012,53442,0,1.0,-0.02734375,0.01171875,-0.015625,0.0,0.0,0.0
67075271,53443,0,1.0,-0.029296875,0.01171875,-0.017578125,0.0,0.0,0.0
67076521,53444,0,1.0,-0.0234375,0.009765625,-0.013671875,0.0,0.0,0.0
67077773,53445,0,1.0,-0.02734375,0.005859375,-0.021484375,0.0,0.0,0.0
67079023,53446,0,1.005859375,-0.02734375,0.015625,-0.01171875,0.0,0.0,0.0
67080274,53447,0,1.005859375,-0.02734375,0.01953125,-0.0078125,0.0,0.0,0.0
67081525,53448,0,1.0,-0.029296875,0.013671875,-0.015625,0.0,0.0,0.0
67082776,53449,0,1.00390625,-0.021484375,0.0234375,0.001953125,0.0,0.0,0.0
67084026,53450,0,1.001953125,-0.02734375,0.015625,-0.01171875,0.0,0.0,0.0
67085276,53451,0,1.005859375,-0.029296875,0.015625,-0.013671875,0.0,0.0,0.0
67086527,53452,0,1.001953125,-0.029296875,0.021484375,-0.0078125,0.0,0.0,0.0
67087778,53453,0,1.00390625,-0.03125,0.015625,-0.015625,0.0,0.0,0.0
67089029,53454,0,1.001953125,-0.029296875,0.013671875,-0.015625,0.0,0.0,0.0
67090280,53455,0,1.01171875,-0.029296875,0.015625,-0.013671875,0.0,0.0,0.0
67091531,53456,0,1.005859375,-0.029296875,0.01171875,-0.017578125,0.0,0.0,0.0
67092783,53457,0,1.005859375,-0.029296875,0.01171875,-0.017578125,0.0,0.0,0.0
67094034,53458,0,1.001953125,-0.029296875,0.01953125,-0.009765625,0.0,0.0,0.0
67095286,53459,0,1.005859375,-0.025390625,0.013671875,-0.01171875,0.0,0.0,0.0
67096537,53460,0,1.0078125,-0.03125,0.017578125,-0.013671875,0.0,0.0,0.0
67097789,53461,0,1.00390625,-0.025390625,0.015625,-0.009765625,0.0,0.0,0.0
67099039,53462,0,1.005859375,-0.033203125,0.013671875,-0.01953125,0.0,0.0,0.0
67100289,53463,0,1.009765625,-0.02734375,0.01171875,-0.015625,0.0,0.0,0.0
67101541,53464,0,1.0078125,-0.033203125,0.013671875,-0.01953125,0.0,0.0,0.0
67102792,53465,0,1.0078125,-0.025390625,0.013671875,-0.01171875,0.0,0.0,0.0
67104044,53466,0,1.00390625,-0.03125,0.01953125,-0.01171875,0.0,0.0,0.0
67105294,53467,0,1.0078125,-0.029296875,0.005859375,-0.0234375,0.0,0.0,0.0
67106544,53468,0,1.00390625,-0.03125,0.017578125,-0.013671875,0.0,0.0,0.0
67107795,53469,0,0.994140625,-0.0234375,0.013671875,-0.009765625,0.0,0.0,0.0
67109045,53470,0,0.99609375,-0.029296875,0.0234375,-0.005859375,0.0,0.0,0.0
67110295,53471,0,1.00390625,-0.02734375,0.015625,-0.01171875,0.0,0.0,0.0
67111546,53472,0,1.001953125,-0.025390625,0.015625,-0.009765625,0.0,0.0,0.0
67112797,53473,0,1.00390625,-0.025390625,0.017578125,-0.0078125,0.0,0.0,0.0
67114048,53474,0,1.00390625,-0.0234375,0.015625,-0.0078125,0.0,0.0,0.0
67115299,53475,0,1.005859375,-0.021484375,0.013671875,-0.0078125,0.0,0.0,0.0
67116550,53476,0,1.001953125,-0.01953125,0.01953125,0.0,0.0,0.0,0.0
67117800,53477,0,0.998046875,-0.029296875,0.0078125,-0.021484375,0.0,0.0,0.0
67119052,53478,0,1.0,-0.02734375,0.015625,-0.01171875,0.0,0.0,0.0
67120303,53479,0,1.0,-0.02734375,0.01953125,-0.0078125,0.0,0.0,0.0
67121554,53480,0,1.001953125,-0.0234375,0.015625,-0.0078125,0.0,0.0,0.0
67122805,53481,0,1.005859375,-0.0234375,0.021484375,-0.001953125,0.0,0.0,0.0
67124057,53482,0,1.0078125,-0.02734375,0.017578125,-0.009765625,0.0,0.0,0.0
67125308,53483,0,1.0,-0.021484375,0.021484375,0.0,0.0,0.0,0.0
67126560,53484,0,1.0,-0.021484375,0.015625,-0.005859375,0.0,0.0,0.0
67127811,53485,0,0.99609375,-0.0234375,-0.046875,-0.0703125,0.0,0.0,0.0
67129063,53486,0,1.0078125,-0.021484375,0.01171875,-0.009765625,0.0,0.0,0.0
67130314,53487,0,1.0,-0.0234375,0.0234375,0.0,0.0,0.0,0.0
67131565,53488,0,0.9921875,-0.021484375,0.01953125,-0.001953125,0.0,0.0,0.0
67132816,53489,0,1.00390625,-0.01953125,0.017578125,-0.001953125,0.0,0.0,0.0
67134066,53490,0,1.001953125,-0.02734375,0.01171875,-0.015625,0.0,0.0,0.0
67135318,53491,0,1.005859375,-0.021484375,0.013671875,-0.0078125,0.0,0.0,0.0
67136569,53492,0,1.005859375,-0.025390625,0.009765625,-0.015625,0.0,0.0,0.0
67137819,53493,0,1.0,-0.025390625,0.017578125,-0.0078125,0.0,0.0,0.0
67139070,53494,0,0.998046875,-0.025390625,0.021484375,-0.00390625,0.0,0.0,0.0
67140321,53495,0,1.005859375,-0.025390625,0.017578125,-0.0078125,0.0,0.0,0.0
67141572,53496,0,1.005859375,-0.025390625,0.017578125,-0.0078125,0.0,0.0,0.0
67142823,53497,0,1.0,-0.0234375,0.017578125,-0.005859375,0.0,0.0,0.0
67144074,53498,0,1.001953125,-0.029296875,0.017578125,-0.01171875,0.0,0.0,0.0
67145325,53499,0,0.998046875,-0.029296875,0.017578125,-0.01171875,0.0,0.0,0.0
67146575,53500,0,1.001953125,-0.02734375,0.017578125,-0.009765625,0.0,0.0,0.0
67147825,53501,0,0.99609375,-0.029296875,0.015625,-0.013671875,0.0,0.0,0.0
67149076,53502,0,1.005859375,-0.029296875,0.013671875,-0.015625,0.0,0.0,0.0
67150326,53503,0,1.001953125,-0.02734375,0.013671875,-0.013671875,0.0,0.0,0.0
67151577,53504,0,1.00390625,-0.021484375,0.017578125,-0.00390625,0.0,0.0,0.0
67152828,53505,0,1.0078125,-0.029296875,0.015625,-0.013671875,0.0,0.0,0.0
67154078,53506,0,1.009765625,-0.033203125,0.015625,-0.017578125,0.0,0.0,0.0
67155329,53507,0,1.0078125,-0.025390625,0.0078125,-0.017578125,0.0,0.0,0.0
67156581,53508,0,1.0078125,-0.03125,0.017578125,-0.013671875,0.0,0.0,0.0
67157833,53509,0,1.017578125,-0.03125,0.013671875,-0.017578125,0.0,0.0,0.0
67159083,53510,0,1.001953125,-0.02734375,0.015625,-0.01171875,0.0,0.0,0.0
67160333,53511,0,1.005859375,-0.02734375,0.01171875,-0.015625,0.0,0.0,0.0
67161584,53512,0,1.009765625,-0.0234375,0.015625,-0.0078125,0.0,0.0,0.0
67162835,53513,0,1.001953125,-0.025390625,0.009765625,-0.015625,0.0,0.0,0.0
67164085,53514,0,0.994140625,-0.03125,0.013671875,-0.017578125,0.0,0.0,0.0
67165336,53515,0,1.005859375,-0.033203125,0.015625,-0.017578125,0.0,0.0,0.0
67166587,53516,0,1.0,-0.02734375,0.015625,-0.01171875,0.0,0.0,0.0
67167838,53517,0,1.005859375,-0.029296875,0.017578125,-0.01171875,0.0,0.0,0.0
67169090,53518,0,1.0078125,-0.02734375,0.013671875,-0.013671875,0.0,0.0,0.0
67170341,53519,0,1.00390625,-0.029296875,0.013671875,-0.015625,0.0,0.0,0.0
67171592,53520,0,1.001953125,-0.02734375,0.013671875,-0.013671875,0.0,0.0,0.0
67172844,53521,0,0.99609375,-0.025390625,0.013671875,-0.01171875,0.0,0.0,0.0
67174095,53522,0,1.001953125,-0.02734375,0.013671875,-0.013671875,0.0,0.0,0.0
67175346,53523,0,1.00390625,-0.02734375,0.01953125,-0.0078125,0.0,0.0,0.0
67176597,53524,0,1.0,-0.025390625,0.013671875,-0.01171875,0.0,0.0,0.0
67177849,53525,0,1.001953125,-0.02734375,0.013671875,-0.013671875,0.0,0.0,0.0
67179099,53526,0,1.001953125,-0.02734375,0.013671875,-0.013671875,0.0,0.0,0.0
67180351,53527,0,1.00390625,-0.025390625,0.005859375,-0.01953125,0.0,0.0,0.0
67181602,53528,0,0.99609375,-0.02734375,0.015625,-0.01171875,0.0,0.0,0.0
67182854,53529,0,0.99609375,-0.0234375,0.01171875,-0.01171875,0.0,0.0,0.0
67184104,53530,0,1.001953125,-0.0234375,0.01953125,-0.00390625,0.0,0.0,0.0
67185354,53531,0,1.001953125,-0.025390625,0.021484375,-0.00390625,0.0,0.0,0.0
67186605,53532,0,1.001953125,-0.025390625,0.0234375,-0.001953125,0.0,0.0,0.0
67187855,53533,0,0.990234375,-0.021484375,0.015625,-0.005859375,0.0,0.0,0.0
67189107,53534,0,1.009765625,-0.025390625,0.015625,-0.009765625,0.0,0.0,0.0
67190358,53535,0,1.001953125,-0.025390625,0.01953125,-0.005859375,0.0,0.0,0.0
67191609,53536,0,1.001953125,-0.021484375,0.017578125,-0.00390625,0.0,0.0,0.0
67192859,53537,0,1.00390625,-0.025390625,0.013671875,-0.01171875,0.0,0.0,0.0
67194111,53538,0,1.009765625,-0.021484375,0.015625,-0.005859375,0.0,0.0,0.0
67195362,53539,0,1.0,-0.025390625,0.021484375,-0.00390625,0.0,0.0,0.0
67196613,53540,0,1.005859375,-0.02734375,0.013671875,-0.013671875,0.0,0.0,0.0
67197865,53541,0,1.00390625,-0.025390625,0.01953125,-0.005859375,0.0,0.0,0.0
67199115,53542,0,1.0,-0.025390625,0.013671875,-0.01171875,0.0,0.0,0.0
67200365,53543,0,1.001953125,-0.02734375,0.017578125,-0.009765625,0.0,0.0,0.0
67201617,53544,0,1.00390625,-0.025390625,0.015625,-0.009765625,0.0,0.0,0.0
67202867,53545,0,1.005859375,-0.02734375,0.015625,-0.01171875,0.0,0.0,0.0
67204118,53546,0,1.0078125,-0.029296875,0.01953125,-0.009765625,0.0,0.0,0.0
67205369,53547,0,1.0,-0.02734375,0.01953125,-0.0078125,0.0,0.0,0.0
67206620,53548,0,0.998046875,-0.025390625,0.017578125,-0.0078125,0.0,0.0,0.0
67207871,53549,0,1.009765625,-0.0234375,0.01953125,-0.00390625,0.0,0.0,0.0
67209123,53550,0,1.001953125,-0.02734375,0.015625,-0.01171875,0.0,0.0,0.0
67210374,53551,0,0.998046875,-0.029296875,0.015625,-0.013671875,0.0,0.0,0.0
67211624,53552,0,0.99609375,-0.029296875,0.01953125,-0.009765625,0.0,0.0,0.0
67212875,53553,0,0.998046875,-0.03515625,0.01171875,-0.0234375,0.0,0.0,0.0
67214125,53554,0,1.0,-0.025390625,0.01953125,-0.005859375,0.0,0.0,0.0
67215375,53555,0,0.994140625,-0.025390625,0.021484375,-0.00390625,0.0,0.0,0.0
67216626,53556,0,1.001953125,-0.029296875,0.01171875,-0.017578125,0.0,0.0,0.0
67217877,53557,0,1.0078125,-0.029296875,0.013671875,-0.015625,0.0,0.0,0.0
67219129,53558,0,1.00390625,-0.029296875,0.013671875,-0.015625,0.0,0.0,0.0
67220380,53559,0,1.0,-0.025390625,0.01953125,-0.005859375,0.0,0.0,0.0
67221630,53560,0,1.0,-0.029296875,0.009765625,-0.01953125,0.0,0.0,0.0
67222881,53561,0,1.005859375,-0.02734375,0.017578125,-0.009765625,0.0,0.0,0.0
67224133,53562,0,1.001953125,-0.02734375,0.013671875,-0.013671875,0.0,0.0,0.0
67225384,53563,0,1.00390625,-0.03125,0.015625,-0.015625,0.0,0.0,0.0
67226634,53564,0,1.001953125,-0.021484375,0.015625,-0.005859375,0.0,0.0,0.0
67227886,53565,0,1.0,-0.029296875,0.015625,-0.013671875,0.0,0.0,0.0
67229136,53566,0,1.0,-0.029296875,0.01953125,-0.009765625,0.0,0.0,0.0
67230386,53567,0,1.00390625,-0.029296875,0.017578125,-0.01171875,0.0,0.0,0.0
67231638,53568,0,1.00390625,-0.025390625,0.017578125,-0.0078125,0.0,0.0,0.0
67232888,53569,0,1.005859375,-0.02734375,0.015625,-0.01171875,0.0,0.0,0.0
67234139,53570,0,1.0,-0.029296875,0.017578125,-0.01171875,0.0,0.0,0.0
67235391,53571,0,1.001953125,-0.025390625,0.015625,-0.009765625,0.0,0.0,0.0
67236641,53572,0,1.001953125,-0.02734375,0.01171875,-0.015625,0.0,0.0,0.0
67237892,53573,0,1.00390625,-0.029296875,0.01171875,-0.017578125,0.0,0.0,0.0
67239142,53574,0,1.0078125,-0.025390625,0.01953125,-0.005859375,0.0,0.0,0.0
67240393,53575,0,1.0078125,-0.025390625,0.009765625,-0.015625,0.0,0.0,0.0
67241645,53576,0,0.99609375,-0.025390625,0.017578125,-0.0078125,0.0,0.0,0.0
67242895,53577,0,1.001953125,-0.021484375,0.01953125,-0.001953125,0.0,0.0,0.0
67244147,53578,0,1.0,-0.02734375,0.017578125,-0.009765625,0.0,0.0,0.0
67245397,53579,0,0.994140625,-0.02734375,0.017578125,-0.009765625,0.0,0.0,0.0
67246649,53580,0,1.00390625,-0.0234375,0.015625,-0.0078125,0.0,0.0,0.0
67247899,53581,0,1.00390625,-0.02734375,0.017578125,-0.009765625,0.0,0.0,0.0
67249149,53582,0,1.001953125,-0.0234375,0.01953125,-0.00390625,0.0,0.0,0.0
67250399,53583,0,1.0078125,-0.0234375,0.015625,-0.0078125,0.0,0.0,0.0
67251650,53584,0,1.00390625,-0.025390625,0.015625,-0.009765625,0.0,0.0,0.0
67252902,53585,0,1.005859375,-0.021484375,0.01953125,-0.001953125,0.0,0.0,0.0
67254153,53586,0,1.009765625,-0.025390625,0.015625,-0.009765625,0.0,0.0,0.0
67255404,53587,0,1.001953125,-0.025390625,0.017578125,-0.0078125,0.0,0.0,0.0
67256654,53588,0,0.994140625,-0.025390625,0.021484375,-0.00390625,0.0,0.0,0.0
67257904,53589,0,1.00390625,-0.02734375,0.017578125,-0.009765625,0.0,0.0,0.0
67259155,53590,0,1.00390625,-0.0234375,0.017578125,-0.005859375,0.0,0.0,0.0
67260407,53591,0,1.009765625,-0.021484375,0.015625,-0.005859375,0.0,0.0,0.0
67261657,53592,0,1.001953125,-0.029296875,0.01953125,-0.009765625,0.0,0.0,0.0
67262909,53593,0,1.013671875,-0.033203125,0.01171875,-0.021484375,0.0,0.0,0.0
67264159,53594,0,1.009765625,-0.025390625,0.009765625,-0.015625,0.0,0.0,0.0
67265409,53595,0,1.00390625,-0.03125,0.015625,-0.015625,0.0,0.0,0.0
67266661,53596,0,1.0,-0.02734375,0.01171875,-0.015625,0.0,0.0,0.0
67267911,53597,0,1.005859375,-0.03125,0.021484375,-0.009765625,0.0,0.0,0.0
67269161,53598,0,1.01171875,-0.025390625,0.013671875,-0.01171875,0.0,0.0,0.0
67270411,53599,0,1.009765625,-0.0234375,0.017578125,-0.005859375,0.0,0.0,0.0
67271663,53600,0,1.0078125,-0.025390625,0.015625,-0.009765625,0.0,0.0,0.0
67272913,53601,0,1.00390625,-0.025390625,0.01953125,-0.005859375,0.0,0.0,0.0
67274164,53602,0,1.0,-0.0234375,0.017578125,-0.005859375,0.0,0.0,0.0
67275415,53603,0,1.0078125,-0.03125,0.0234375,-0.0078125,0.0,0.0,0.0
67276666,53604,0,1.001953125,-0.025390625,0.013671875,-0.01171875,0.0,0.0,0.0
67277916,53605,0,0.99609375,-0.029296875,0.0078125,-0.021484375,0.0,0.0,0.0
67279167,53606,0,1.001953125,-0.029296875,0.015625,-0.013671875,0.0,0.0,0.0
67280417,53607,0,1.0,-0.025390625,0.015625,-0.009765625,0.0,0.0,0.0
67281668,53608,0,1.009765625,-0.029296875,0.01953125,-0.009765625,0.0,0.0,0.0
67282920,53609,0,1.009765625,-0.029296875,0.01171875,-0.017578125,0.0,0.0,0.0
67284171,53610,0,1.0,-0.02734375,0.01171875,-0.015625,0.0,0.0,0.0
67285421,53611,0,1.009765625,-0.02734375,0.015625,-0.01171875,0.0,0.0,0.0
67286672,53612,0,1.001953125,-0.02734375,0.013671875,-0.013671875,0.0,0.0,0.0
67287924,53613,0,1.0078125,-0.02734375,0.015625,-0.01171875,0.0,0.0,0.0
67289174,53614,0,1.01171875,-0.02734375,0.01953125,-0.0078125,0.0,0.0,0.0
67290425,53615,0,1.001953125,-0.03125,0.017578125,-0.013671875,0.0,0.0,0.0
67291677,53616,0,1.00390625,-0.02734375,0.01953125,-0.0078125,0.0,0.0,0.0
67292927,53617,0,1.009765625,-0.03515625,0.013671875,-0.021484375,0.0,0.0,0.0
67294177,53618,0,1.005859375,-0.029296875,0.013671875,-0.015625,0.0,0.0,0.0
67295429,53619,0,1.005859375,-0.02734375,0.015625,-0.01171875,0.0,0.0,0.0
67296679,53620,0,1.00390625,-0.02734375,0.013671875,-0.013671875,0.0,0.0,0.0
67297931,53621,0,1.0078125,-0.029296875,0.01171875,-0.017578125,0.0,0.0,0.0
67299181,53622,0,1.005859375,-0.029296875,0.013671875,-0.015625,0.0,0.0,0.0
67300431,53623,0,1.00390625,-0.02734375,0.017578125,-0.009765625,0.0,0.0,0.0
67301683,53624,0,1.00390625,-0.025390625,0.015625,-0.009765625,0.0,0.0,0.0
67302933,53625,0,1.0078125,-0.0234375,0.013671875,-0.009765625,0.0,0.0,0.0
67304183,53626,0,1.005859375,-0.02734375,0.013671875,-0.013671875,0.0,0.0,0.0
67305434,53627,0,1.005859375,-0.02734375,0.01953125,-0.0078125,0.0,0.0,0.0
67306685,53628,0,1.001953125,-0.0234375,0.015625,-0.0078125,0.0,0.0,0.0
67307936,53629,0,1.0,-0.0234375,0.017578125,-0.005859375,0.0,0.0,0.0
67309186,53630,0,0.998046875,-0.02734375,0.013671875,-0.013671875,0.0,0.0,0.0
67310437,53631,0,1.0,-0.02734375,0.015625,-0.01171875,0.0,0.0,0.0
67311687,53632,0,1.001953125,-0.025390625,0.01953125,-0.005859375,0.0,0.0,0.0
67312937,53633,0,1.005859375,-0.025390625,0.015625,-0.009765625,0.0,0.0,0.0
67314188,53634,0,1.001953125,-0.029296875,0.021484375,-0.0078125,0.0,0.0,0.0
67315440,53635,0,1.0078125,-0.025390625,0.017578125,-0.0078125,0.0,0.0,0.0
67316690,53636,0,1.001953125,-0.0234375,0.01953125,-0.00390625,0.0,0.0,0.0
67317942,53637,0,0.998046875,-0.02734375,0.017578125,-0.009765625,0.0,0.0,0.0
67319193,53638,0,0.998046875,-0.0234375,0.01171875,-0.01171875,0.0,0.0,0.0
67320445,53639,0,1.001953125,-0.01953125,0.017578125,-0.001953125,0.0,0.0,0.0
67321695,53640,0,1.001953125,-0.01953125,0.017578125,-0.001953125,0.0,0.0,0.0
67322947,53641,0,1.00390625,-0.0234375,0.009765625,-0.013671875,0.0,0.0,0.0
67324198,53642,0,1.00390625,-0.02734375,0.017578125,-0.009765625,0.0,0.0,0.0
67325450,53643,0,1.005859375,-0.029296875,0.013671875,-0.015625,0.0,0.0,0.0
67326700,53644,0,1.0078125,-0.02734375,0.017578125,-0.009765625,0.0,0.0,0.0
67327952,53645,0,1.00390625,-0.021484375,0.01953125,-0.001953125,0.0,0.0,0.0
67329203,53646,0,1.005859375,-0.0234375,0.01953125,-0.00390625,0.0,0.0,0.0
67330454,53647,0,1.005859375,-0.0234375,0.015625,-0.0078125,0.0,0.0,0.0
67331705,53648,0,1.001953125,-0.02734375,0.01953125,-0.0078125,0.0,0.0,0.0
67332957,53649,0,1.001953125,-0.0234375,0.01953125,-0.00390625,0.0,0.0,0.0
67334207,53650,0,1.0078125,-0.025390625,0.015625,-0.009765625,0.0,0.0,0.0
67335459,53651,0,1.0078125,-0.029296875,0.01953125,-0.009765625,0.0,0.0,0.0
67336709,53652,0,1.0,-0.029296875,0.013671875,-0.015625,0.0,0.0,0.0
67337959,53653,0,1.005859375,-0.02734375,0.013671875,-0.013671875,0.0,0.0,0.0
67339209,53654,0,1.0078125,-0.025390625,0.015625,-0.009765625,0.0,0.0,0.0
67340459,53655,0,1.00390625,-0.029296875,0.017578125,-0.01171875,0.0,0.0,0.0
67341711,53656,0,1.009765625,-0.02734375,0.01171875,-0.015625,0.0,0.0,0.0
67342961,53657,0,1.0078125,-0.0234375,0.01953125,-0.00390625,0.0,0.0,0.0
67344213,53658,0,1.009765625,-0.02734375,0.01171875,-0.015625,0.0,0.0,0.0
67345464,53659,0,1.0078125,-0.029296875,0.0234375,-0.005859375,0.0,0.0,0.0
67346715,53660,0,1.001953125,-0.033203125,0.015625,-0.017578125,0.0,0.0,0.0
67347966,53661,0,1.005859375,-0.0234375,0.015625,-0.0078125,0.0,0.0,0.0
67349216,53662,0,1.009765625,-0.033203125,0.01953125,-0.013671875,0.0,0.0,0.0
67350467,53663,0,1.0078125,-0.02734375,0.013671875,-0.013671875,0.0,0.0,0.0
67351718,53664,0,1.00390625,-0.033203125,0.01953125,-0.013671875,0.0,0.0,0.0
67352968,53665,0,1.001953125,-0.02734375,0.017578125,-0.009765625,0.0,0.0,0.0
67354219,53666,0,1.005859375,-0.0234375,0.013671875,-0.009765625,0.0,0.0,0.0
67355470,53667,0,1.00390625,-0.025390625,0.01171875,-0.013671875,0.0,0.0,0.0
67356721,53668,0,1.001953125,-0.02734375,0.015625,-0.01171875,0.0,0.0,0.0
67357971,53669,0,1.00390625,-0.029296875,0.017578125,-0.01171875,0.0,0.0,0.0
67359223,53670,0,0.998046875,-0.025390625,0.021484375,-0.00390625,0.0,0.0,0.0
67360473,53671,0,1.0078125,-0.025390625,0.017578125,-0.0078125,0.0,0.0,0.0
67361723,53672,0,1.0078125,-0.025390625,0.021484375,-0.00390625,0.0,0.0,0.0
67362975,53673,0,1.001953125,-0.03125,0.01953125,-0.01171875,0.0,0.0,0.0
67364226,53674,0,1.005859375,-0.025390625,0.015625,-0.009765625,0.0,0.0,0.0
67365476,53675,0,1.00390625,-0.025390625,0.017578125,-0.0078125,0.0,0.0,0.0
67366728,53676,0,1.005859375,-0.0234375,0.021484375,-0.001953125,0.0,0.0,0.0
67367979,53677,0,1.001953125,-0.0234375,0.013671875,-0.009765625,0.0,0.0,0.0
67369229,53678,0,1.005859375,-0.02734375,0.0234375,-0.00390625,0.0,0.0,0.0
67370481,53679,0,1.005859375,-0.029296875,0.01953125,-0.009765625,0.0,0.0,0.0
67371731,53680,0,1.001953125,-0.02734375,0.017578125,-0.009765625,0.0,0.0,0.0
67372981,53681,0,1.0,-0.03125,0.01171875,-0.01953125,0.0,0.0,0.0
67374232,53682,0,1.001953125,-0.029296875,0.01953125,-0.009765625,0.0,0.0,0.0
67375483,53683,0,1.0078125,-0.025390625,0.009765625,-0.015625,0.0,0.0,0.0
67376734,53684,0,1.001953125,-0.025390625,0.01171875,-0.013671875,0.0,0.0,0.0
67377986,53685,0,0.99609375,-0.025390625,0.017578125,-0.0078125,0.0,0.0,0.0
67379236,53686,0,0.998046875,-0.0234375,0.015625,-0.0078125,0.0,0.0,0.0
67380486,53687,0,1.0078125,-0.0234375,0.013671875,-0.009765625,0.0,0.0,0.0
67381737,53688,0,1.001953125,-0.025390625,0.013671875,-0.01171875,0.0,0.0,0.0
67382987,53689,0,1.0078125,-0.03515625,0.017578125,-0.017578125,0.0,0.0,0.0
67384238,53690,0,1.0078125,-0.029296875,0.01953125,-0.009765625,0.0,0.0,0.0
67385489,53691,0,1.00390625,-0.025390625,0.009765625,-0.015625,0.0,0.0,0.0
67386740,53692,0,1.005859375,-0.025390625,0.021484375,-0.00390625,0.0,0.0,0.0
67387991,53693,0,1.001953125,-0.0234375,0.017578125,-0.005859375,0.0,0.0,0.0
67389241,53694,0,1.00390625,-0.029296875,0.017578125,-0.01171875,0.0,0.0,0.0
67390492,53695,0,1.0078125,-0.021484375,0.009765625,-0.01171875,0.0,0.0,0.0
67391744,53696,0,1.00390625,-0.0234375,0.015625,-0.0078125,0.0,0.0,0.0
67392994,53697,0,1.00390625,-0.021484375,0.0078125,-0.013671875,0.0,0.0,0.0
67394245,53698,0,1.00390625,-0.025390625,0.015625,-0.009765625,0.0,0.0,0.0
67395496,53699,0,0.99609375,-0.025390625,0.01953125,-0.005859375,0.0,0.0,0.0
67396747,53700,0,0.998046875,-0.0234375,0.017578125,-0.005859375,0.0,0.0,0.0
67397998,53701,0,1.015625,-0.021484375,0.0078125,-0.013671875,0.0,0.0,0.0
67399249,53702,0,0.998046875,-0.02734375,0.015625,-0.01171875,0.0,0.0,0.0
67400499,53703,0,1.005859375,-0.025390625,0.0078125,-0.017578125,0.0,0.0,0.0
67401751,53704,0,1.0078125,-0.02734375,0.015625,-0.01171875,0.0,0.0,0.0
67403002,53705,0,1.017578125,-0.03125,0.013671875,-0.017578125,0.0,0.0,0.0
67404253,53706,0,1.001953125,-0.03125,0.001953125,-0.029296875,0.0,0.0,0.0
67405503,53707,0,1.001953125,-0.03125,0.009765625,-0.021484375,0.0,0.0,0.0
67406755,53708,0,1.00390625,-0.025390625,0.01171875,-0.013671875,0.0,0.0,0.0
67408005,53709,0,1.005859375,-0.0234375,0.01171875,-0.01171875,0.0,0.0,0.0
67409256,53710,0,1.0078125,-0.029296875,0.015625,-0.013671875,0.0,0.0,0.0
67410506,53711,0,1.0078125,-0.025390625,0.015625,-0.009765625,0.0,0.0,0.0
67411757,53712,0,1.005859375,-0.025390625,0.013671875,-0.01171875,0.0,0.0,0.0
67413008,53713,0,1.001953125,-0.025390625,0.01171875,-0.013671875,0.0,0.0,0.0
67414258,53714,0,1.0078125,-0.025390625,0.01171875,-0.013671875,0.0,0.0,0.0
67415508,53715,0,0.998046875,-0.029296875,0.01171875,-0.017578125,0.0,0.0,0.0
67416759,53716,0,1.001953125,-0.02734375,0.013671875,-0.013671875,0.0,0.0,0.0
67418009,53717,0,1.005859375,-0.03125,0.015625,-0.015625,0.0,0.0,0.0
67419259,53718,0,1.00390625,-0.02734375,0.013671875,-0.013671875,0.0,0.0,0.0
67420510,53719,0,1.00390625,-0.02734375,0.013671875,-0.013671875,0.0,0.0,0.0
67421762,53720,0,1.005859375,-0.029296875,0.01171875,-0.017578125,0.0,0.0,0.0
67423012,53721,0,1.015625,-0.02734375,0.013671875,-0.013671875,0.0,0.0,0.0
67424271,53722,0,1.009765625,-0.0234375,0.017578125,-0.005859375,0.0,0.0,0.0
67425521,53723,0,1.01171875,-0.025390625,0.017578125,-0.0078125,0.0,0.0,0.0
67426773,53724,0,0.998046875,-0.025390625,0.017578125,-0.0078125,0.0,0.0,0.0
67428023,53725,0,0.99609375,-0.02734375,0.01953125,-0.0078125,0.0,0.0,0.0
67429274,53726,0,1.0,-0.021484375,0.01953125,-0.001953125,0.0,0.0,0.0
67430525,53727,0,0.99609375,-0.02734375,0.01171875,-0.015625,0.0,0.0,0.0
67431776,53728,0,1.00390625,-0.01953125,0.021484375,0.001953125,0.0,0.0,0.0
67433026,53729,0,1.0,-0.02734375,0.015625,-0.01171875,0.0,0.0,0.0
67434276,53730,0,1.00390625,-0.025390625,0.017578125,-0.0078125,0.0,0.0,0.0
67435527,53731,0,1.00390625,-0.025390625,0.01953125,-0.005859375,0.0,0.0,0.0
67436778,53732,0,1.00390625,-0.021484375,0.01171875,-0.009765625,0.0,0.0,0.0
67438029,53733,0,1.00390625,-0.033203125,0.017578125,-0.015625,0.0,0.0,0.0
67439280,53734,0,1.0,-0.02734375,0.017578125,-0.009765625,0.0,0.0,0.0
67440531,53735,0,1.001953125,-0.0234375,0.01953125,-0.00390625,0.0,0.0,0.0
67441783,53736,0,1.0,-0.02734375,0.017578125,-0.009765625,0.0,0.0,0.0
67443034,53737,0,1.0078125,-0.025390625,0.015625,-0.009765625,0.0,0.0,0.0
67444286,53738,0,1.00390625,-0.029296875,0.015625,-0.013671875,0.0,0.0,0.0
67445537,53739,0,1.001953125,-0.02734375,0.015625,-0.01171875,0.0,0.0,0.0
67446789,53740,0,0.99609375,-0.029296875,0.015625,-0.013671875,0.0,0.0,0.0
67448039,53741,0,1.005859375,-0.0234375,0.02734375,0.00390625,0.0,0.0,0.0
67449289,53742,0,1.0,-0.021484375,0.01953125,-0.001953125,0.0,0.0,0.0
67450541,53743,0,0.99609375,-0.029296875,0.013671875,-0.015625,0.0,0.0,0.0
67451792,53744,0,1.00390625,-0.033203125,0.01171875,-0.021484375,0.0,0.0,0.0
67453044,53745,0,1.001953125,-0.029296875,0.009765625,-0.01953125,0.0,0.0,0.0
67454294,53746,0,1.0078125,-0.021484375,0.01171875,-0.009765625,0.0,0.0,0.0
67455544,53747,0,1.0,-0.02734375,0.01171875,-0.015625,0.0,0.0,0.0
67456795,53748,0,0.998046875,-0.02734375,0.017578125,-0.009765625,0.0,0.0,0.0
67458045,53749,0,1.015625,-0.029296875,0.021484375,-0.0078125,0.0,0.0,0.0
67459295,53750,0,1.005859375,-0.029296875,0.017578125,-0.01171875,0.0,0.0,0.0
67460546,53751,0,0.998046875,-0.025390625,0.017578125,-0.0078125,0.0,0.0,0.0
67461797,53752,0,1.001953125,-0.025390625,0.015625,-0.009765625,0.0,0.0,0.0
67463048,53753,0,1.0078125,-0.0234375,0.01953125,-0.00390625,0.0,0.0,0.0
67464299,53754,0,1.005859375,-0.02734375,0.017578125,-0.009765625,0.0,0.0,0.0
67465550,53755,0,0.998046875,-0.029296875,0.017578125,-0.01171875,0.0,0.0,0.0
67466800,53756,0,1.0078125,-0.025390625,0.021484375,-0.00390625,0.0,0.0,0.0
67468052,53757,0,1.0078125,-0.025390625,0.01953125,-0.005859375,0.0,0.0,0.0
67469303,53758,0,0.998046875,-0.029296875,0.01171875,-0.017578125,0.0,0.0,0.0
67470554,53759,0,1.001953125,-0.02734375,0.01171875,-0.015625,0.0,0.0,0.0
67471805,53760,0,1.00390625,-0.025390625,0.01953125,-0.005859375,0.0,0.0,0.0
67473057,53761,0,1.005859375,-0.029296875,0.01171875,-0.017578125,0.0,0.0,0.0
67474308,53762,0,1.0,-0.0234375,0.013671875,-0.009765625,0.0,0.0,0.0
67475560,53763,0,1.001953125,-0.025390625,0.015625,-0.009765625,0.0,0.0,0.0
67476811,53764,0,1.0,-0.025390625,0.015625,-0.009765625,0.0,0.0,0.0
67478063,53765,0,0.994140625,-0.025390625,0.015625,-0.009765625,0.0,0.0,0.0
67479314,53766,0,0.99609375,-0.025390625,0.01171875,-0.013671875,0.0,0.0,0.0
67480565,53767,0,1.00390625,-0.021484375,0.013671875,-0.0078125,0.0,0.0,0.0
67481816,53768,0,1.0,-0.021484375,0.017578125,-0.00390625,0.0,0.0,0.0
67483066,53769,0,1.015625,-0.025390625,0.01171875,-0.013671875,0.0,0.0,0.0
67484318,53770,0,1.0078125,-0.02734375,0.015625,-0.01171875,0.0,0.0,0.0
67485569,53771,0,1.0,-0.025390625,0.015625,-0.009765625,0.0,0.0,0.0
67486819,53772,0,1.001953125,-0.02734375,0.015625,-0.01171875,0.0,0.0,0.0
67488070,53773,0,1.001953125,-0.029296875,0.01171875,-0.017578125,0.0,0.0,0.0
67489321,53774,0,1.001953125,-0.025390625,0.013671875,-0.01171875,0.0,0.0,0.0
67490572,53775,0,1.005859375,-0.02734375,0.01171875,-0.015625,0.0,0.0,0.0
67491823,53776,0,1.005859375,-0.029296875,0.01171875,-0.017578125,0.0,0.0,0.0
67493074,53777,0,1.005859375,-0.02734375,0.017578125,-0.009765625,0.0,0.0,0.0
67494325,53778,0,1.0,-0.021484375,0.015625,-0.005859375,0.0,0.0,0.0
67495575,53779,0,1.009765625,-0.0234375,0.015625,-0.0078125,0.0,0.0,0.0
67496825,53780,0,1.005859375,-0.03125,0.021484375,-0.009765625,0.0,0.0,0.0
67498076,53781,0,1.00390625,-0.025390625,0.013671875,-0.01171875,0.0,0.0,0.0
67499326,53782,0,1.0078125,-0.029296875,0.015625,-0.013671875,0.0,0.0,0.0
67500577,53783,0,1.001953125,-0.03125,0.01171875,-0.01953125,0.0,0.0,0.0
67501828,53784,0,1.00390625,-0.021484375,0.009765625,-0.01171875,0.0,0.0,0.0
67503078,53785,0,1.009765625,-0.029296875,0.021484375,-0.0078125,0.0,0.0,0.0
67504329,53786,0,1.001953125,-0.02734375,0.021484375,-0.005859375,0.0,0.0,0.0
67505581,53787,0,1.0078125,-0.0234375,0.005859375,-0.017578125,0.0,0.0,0.0
67506833,53788,0,1.005859375,-0.03125,0.015625,-0.015625,0.0,0.0,0.0
67508083,53789,0,1.001953125,-0.025390625,0.01171875,-0.013671875,0.0,0.0,0.0
67509333,53790,0,1.001953125,-0.02734375,0.021484375,-0.005859375,0.0,0.0,0.0
67510584,53791,0,1.00390625,-0.02734375,0.01953125,-0.0078125,0.0,0.0,0.0
67511835,53792,0,1.00390625,-0.025390625,0.017578125,-0.0078125,0.0,0.0,0.0
67513085,53793,0,1.005859375,-0.025390625,0.015625,-0.009765625,0.0,0.0,0.0
67514336,53794,0,1.001953125,-0.029296875,0.013671875,-0.015625,0.0,0.0,0.0
67515587,53795,0,1.001953125,-0.029296875,0.013671875,-0.015625,0.0,0.0,0.0
67516838,53796,0,1.001953125,-0.029296875,0.01953125,-0.009765625,0.0,0.0,0.0
67518090,53797,0,1.001953125,-0.0234375,0.013671875,-0.009765625,0.0,0.0,0.0
67519341,53798,0,0.99609375,-0.0234375,0.017578125,-0.005859375,0.0,0.0,0.0
67520592,53799,0,0.998046875,-0.02734375,0.015625,-0.01171875,0.0,0.0,0.0
67521844,53800,0,1.001953125,-0.025390625,0.015625,-0.009765625,0.0,0.0,0.0
67523095,53801,0,1.0078125,-0.025390625,0.013671875,-0.01171875,0.0,0.0,0.0
67524346,53802,0,1.0078125,-0.03125,0.015625,-0.015625,0.0,0.0,0.0
67525597,53803,0,1.005859375,-0.0234375,0.01171875,-0.01171875,0.0,0.0,0.0
67526849,53804,0,1.0,-0.03125,0.01953125,-0.01171875,0.0,0.0,0.0
67528099,53805,0,1.001953125,-0.02734375,0.021484375,-0.005859375,0.0,0.0,0.0
67529351,53806,0,1.001953125,-0.025390625,0.01171875,-0.013671875,0.0,0.0,0.0
67530602,53807,0,1.015625,-0.02734375,0.009765625,-0.017578125,0.0,0.0,0.0
67531854,53808,0,1.00390625,-0.029296875,0.00390625,-0.025390625,0.0,0.0,0.0
67533104,53809,0,1.0078125,-0.0234375,0.0078125,-0.015625,0.0,0.0,0.0
67534354,53810,0,1.0,-0.025390625,0.01953125,-0.005859375,0.0,0.0,0.0
67535605,53811,0,0.98828125,-0.02734375,0.01171875,-0.015625,0.0,0.0,0.0
67536855,53812,0,1.0,-0.029296875,0.01953125,-0.009765625,0.0,0.0,0.0
67538107,53813,0,1.0078125,-0.02734375,0.01953125,-0.0078125,0.0,0.0,0.0
67539358,53814,0,1.00390625,-0.02734375,0.015625,-0.01171875,0.0,0.0,0.0
67540609,53815,0,1.0,-0.02734375,0.021484375,-0.005859375,0.0,0.0,0.0
67541859,53816,0,1.005859375,-0.025390625,0.013671875,-0.01171875,0.0,0.0,0.0
67543111,53817,0,1.005859375,-0.025390625,0.01171875,-0.013671875,0.0,0.0,0.0
67544362,53818,0,1.005859375,-0.025390625,0.0078125,-0.017578125,0.0,0.0,0.0
67545613,53819,0,1.005859375,-0.02734375,0.01171875,-0.015625,0.0,0.0,0.0
67546865,53820,0,1.00390625,-0.021484375,0.013671875,-0.0078125,0.0,0.0,0.0
67548115,53821,0,1.0078125,-0.02734375,0.021484375,-0.005859375,0.0,0.0,0.0
67549365,53822,0,1.0,-0.025390625,0.021484375,-0.00390625,0.0,0.0,0.0
67550617,53823,0,1.001953125,-0.0234375,0.013671875,-0.009765625,0.0,0.0,0.0
67551867,53824,0,1.001953125,-0.0234375,0.017578125,-0.005859375,0.0,0.0,0.0
67553118,53825,0,1.005859375,-0.021484375,0.015625,-0.005859375,0.0,0.0,0.0
67554369,53826,0,1.0078125,-0.033203125,0.005859375,-0.02734375,0.0,0.0,0.0
67555620,53827,0,1.0,-0.025390625,0.00390625,-0.021484375,0.0,0.0,0.0
67556871,53828,0,0.998046875,-0.0234375,0.01953125,-0.00390625,0.0,0.0,0.0
67558123,53829,0,1.005859375,-0.0234375,0.017578125,-0.005859375,0.0,0.0,0.0
67559374,53830,0,1.0,-0.029296875,0.01171875,-0.017578125,0.0,0.0,0.0
67560624,53831,0,1.005859375,-0.02734375,0.015625,-0.01171875,0.0,0.0,0.0
67561875,53832,0,0.998046875,-0.025390625,0.01953125,-0.005859375,0.0,0.0,0.0
67563125,53833,0,1.005859375,-0.02734375,0.013671875,-0.013671875,0.0,0.0,0.0
67564375,53834,0,1.0078125,-0.02734375,0.013671875,-0.013671875,0.0,0.0,0.0
67565626,53835,0,1.00390625,-0.025390625,0.01953125,-0.005859375,0.0,0.0,0.0
67566877,53836,0,1.0,-0.025390625,0.009765625,-0.015625,0.0,0.0,0.0
67568129,53837,0,1.0078125,-0.02734375,0.013671875,-0.013671875,0.0,0.0,0.0
67569380,53838,0,1.009765625,-0.0234375,0.009765625,-0.013671875,0.0,0.0,0.0
67570630,53839,0,1.009765625,-0.0234375,0.01171875,-0.01171875,0.0,0.0,0.0
67571881,53840,0,1.00390625,-0.02734375,0.001953125,-0.025390625,0.0,0.0,0.0
67573133,53841,0,1.0,-0.025390625,0.0078125,-0.017578125,0.0,0.0,0.0
67574384,53842,0,0.99609375,-0.02734375,0.017578125,-0.009765625,0.0,0.0,0.0
67575634,53843,0,1.00390625,-0.025390625,0.009765625,-0.015625,0.0,0.0,0.0
67576886,53844,0,1.001953125,-0.025390625,0.013671875,-0.01171875,0.0,0.0,0.0
67578136,53845,0,1.001953125,-0.025390625,0.01953125,-0.005859375,0.0,0.0,0.0
67579386,53846,0,1.005859375,-0.02734375,0.015625,-0.01171875,0.0,0.0,0.0
67580638,53847,0,1.001953125,-0.025390625,0.017578125,-0.0078125,0.0,0.0,0.0
67581888,53848,0,1.005859375,-0.02734375,0.013671875,-0.013671875,0.0,0.0,0.0
67583139,53849,0,1.013671875,-0.021484375,0.0078125,-0.013671875,0.0,0.0,0.0
67584391,53850,0,1.015625,-0.029296875,0.0078125,-0.021484375,0.0,0.0,0.0
67585641,53851,0,1.001953125,-0.02734375,0.017578125,-0.009765625,0.0,0.0,0.0
67586892,53852,0,1.00390625,-0.021484375,0.017578125,-0.00390625,0.0,0.0,0.0
67588142,53853,0,1.0078125,-0.0234375,0.01171875,-0.01171875,0.0,0.0,0.0
67589393,53854,0,1.01171875,-0.02734375,0.0078125,-0.01953125,0.0,0.0,0.0
67590645,53855,0,1.005859375,-0.02734375,0.01953125,-0.0078125,0.0,0.0,0.0
67591895,53856,0,1.00390625,-0.025390625,0.01953125,-0.005859375,0.0,0.0,0.0
67593147,53857,0,1.005859375,-0.02734375,0.015625,-0.01171875,0.0,0.0,0.0
67594397,53858,0,1.0078125,-0.01953125,0.017578125,-0.001953125,0.0,0.0,0.0
67595649,53859,0,1.00390625,-0.0234375,0.015625,-0.0078125,0.0,0.0,0.0
67596899,53860,0,1.005859375,-0.025390625,0.009765625,-0.015625,0.0,0.0,0.0
67598149,53861,0,1.001953125,-0.029296875,0.005859375,-0.0234375,0.0,0.0,0.0
67599399,53862,0,1.00390625,-0.03125,0.01171875,-0.01953125,0.0,0.0,0.0
67600650,53863,0,1.001953125,-0.025390625,0.017578125,-0.0078125,0.0,0.0,0.0
67601902,53864,0,1.00390625,-0.02734375,0.01171875,-0.015625,0.0,0.0,0.0
67603153,53865,0,1.005859375,-0.029296875,0.01953125,-0.009765625,0.0,0.0,0.0
67604404,53866,0,1.001953125,-0.02734375,0.015625,-0.01171875,0.0,0.0,0.0
67605654,53867,0,1.005859375,-0.025390625,0.013671875,-0.01171875,0.0,0.0,0.0
67606904,53868,0,1.001953125,-0.02734375,0.021484375,-0.005859375,0.0,0.0,0.0
67608155,53869,0,1.0,-0.029296875,0.005859375,-0.0234375,0.0,0.0,0.0
67609407,53870,0,1.0,-0.025390625,0.01953125,-0.005859375,0.0,0.0,0.0
67610657,53871,0,1.009765625,-0.0234375,0.009765625,-0.013671875,0.0,0.0,0.0
67611909,53872,0,1.0,-0.025390625,0.0078125,-0.017578125,0.0,0.0,0.0
67613159,53873,0,1.0078125,-0.025390625,0.017578125,-0.0078125,0.0,0.0,0.0
67614409,53874,0,0.99609375,-0.02734375,0.0234375,-0.00390625,0.0,0.0,0.0
67615661,53875,0,1.0078125,-0.0234375,0.013671875,-0.009765625,0.0,0.0,0.0
67616911,53876,0,1.00390625,-0.025390625,0.021484375,-0.00390625,0.0,0.0,0.0
67618161,53877,0,1.00390625,-0.02734375,0.015625,-0.01171875,0.0,0.0,0.0
67619411,53878,0,1.005859375,-0.02734375,0.017578125,-0.009765625,0.0,0.0,0.0
67620663,53879,0,1.005859375,-0.029296875,0.015625,-0.013671875,0.0,0.0,0.0
67621913,53880,0,0.99609375,-0.02734375,0.013671875,-0.013671875,0.0,0.0,0.0
67623164,53881,0,1.005859375,-0.025390625,0.013671875,-0.01171875,0.0,0.0,0.0
67624415,53882,0,1.001953125,-0.02734375,0.01171875,-0.015625,0.0,0.0,0.0
67625666,53883,0,1.001953125,-0.025390625,0.01171875,-0.013671875,0.0,0.0,0.0
67626916,53884,0,1.001953125,-0.025390625,0.009765625,-0.015625,0.0,0.0,0.0
67628167,53885,0,0.99609375,-0.03125,0.015625,-0.015625,0.0,0.0,0.0
67629417,53886,0,1.0078125,-0.0234375,0.017578125,-0.005859375,0.0,0.0,0.0
67630668,53887,0,1.0,-0.029296875,0.013671875,-0.015625,0.0,0.0,0.0
67631920,53888,0,1.0078125,-0.02734375,0.013671875,-0.013671875,0.0,0.0,0.0
67633171,53889,0,1.013671875,-0.025390625,0.009765625,-0.015625,0.0,0.0,0.0
67634421,53890,0,1.0078125,-0.029296875,0.013671875,-0.015625,0.0,0.0,0.0
67635672,53891,0,1.009765625,-0.033203125,0.01953125,-0.013671875,0.0,0.0,0.0
67636924,53892,0,1.00390625,-0.029296875,0.015625,-0.013671875,0.0,0.0,0.0
67638174,53893,0,1.001953125,-0.02734375,0.013671875,-0.013671875,0.0,0.0,0.0
67639425,53894,0,1.009765625,-0.021484375,0.005859375,-0.015625,0.0,0.0,0.0
67640677,53895,0,0.99609375,-0.02734375,0.017578125,-0.009765625,0.0,0.0,0.0
67641927,53896,0,1.005859375,-0.033203125,0.0078125,-0.025390625,0.0,0.0,0.0
67643177,53897,0,1.0078125,-0.025390625,0.01171875,-0.013671875,0.0,0.0,0.0
67644429,53898,0,1.001953125,-0.02734375,0.013671875,-0.013671875,0.0,0.0,0.0
67645679,53899,0,1.0,-0.025390625,0.009765625,-0.015625,0.0,0.0,0.0
67646931,53900,0,1.00390625,-0.02734375,0.015625,-0.01171875,0.0,0.0,0.0
67648181,53901,0,1.0,-0.025390625,0.01953125,-0.005859375,0.0,0.0,0.0
67649431,53902,0,1.001953125,-0.029296875,0.015625,-0.013671875,0.0,0.0,0.0
67650683,53903,0,1.005859375,-0.0234375,0.017578125,-0.005859375,0.0,0.0,0.0
67651933,53904,0,1.009765625,-0.02734375,0.017578125,-0.009765625,0.0,0.0,0.0
67653183,53905,0,1.00390625,-0.025390625,0.013671875,-0.01171875,0.0,0.0,0.0
67654434,53906,0,0.998046875,-0.02734375,0.009765625,-0.017578125,0.0,0.0,0.0
67655685,53907,0,1.00390625,-0.0234375,0.015625,-0.0078125,0.0,0.0,0.0
67656936,53908,0,1.005859375,-0.025390625,0.01953125,-0.005859375,0.0,0.0,0.0
67658186,53909,0,1.00390625,-0.02734375,0.0078125,-0.01953125,0.0,0.0,0.0
67659437,53910,0,1.001953125,-0.025390625,0.01171875,-0.013671875,0.0,0.0,0.0
67660687,53911,0,1.001953125,-0.02734375,0.01171875,-0.015625,0.0,0.0,0.0
67661937,53912,0,1.0078125,-0.0234375,0.013671875,-0.009765625,0.0,0.0,0.0
67663188,53913,0,1.0,-0.03125,0.013671875,-0.017578125,0.0,0.0,0.0
67664440,53914,0,1.013671875,-0.0234375,0.013671875,-0.009765625,0.0,0.0,0.0
67665690,53915,0,1.013671875,-0.021484375,0.009765625,-0.01171875,0.0,0.0,0.0
67666942,53916,0,1.01171875,-0.0234375,0.009765625,-0.013671875,0.0,0.0,0.0
67668193,53917,0,0.998046875,-0.021484375,0.013671875,-0.0078125,0.0,0.0,0.0
67669445,53918,0,0.998046875,-0.025390625,0.013671875,-0.01171875,0.0,0.0,0.0
67670695,53919,0,1.015625,-0.029296875,0.009765625,-0.01953125,0.0,0.0,0.0
67671947,53920,0,0.998046875,-0.02734375,0.013671875,-0.013671875,0.0,0.0,0.0
67673198,53921,0,1.001953125,-0.025390625,0.017578125,-0.0078125,0.0,0.0,0.0
67674450,53922,0,1.0078125,-0.025390625,0.01953125,-0.005859375,0.0,0.0,0.0
67675700,53923,0,1.0,-0.029296875,0.009765625,-0.01953125,0.0,0.0,0.0
67676952,53924,0,1.0078125,-0.03125,0.013671875,-0.017578125,0.0,0.0,0.0
67678203,53925,0,1.0,-0.025390625,0.017578125,-0.0078125,0.0,0.0,0.0
67679454,53926,0,1.0078125,-0.0234375,0.01171875,-0.01171875,0.0,0.0,0.0
67680705,53927,0,1.00390625,-0.025390625,0.01171875,-0.013671875,0.0,0.0,0.0
67681957,53928,0,1.005859375,-0.025390625,0.013671875,-0.01171875,0.0,0.0,0.0
67683207,53929,0,0.99609375,-0.02734375,0.01171875,-0.015625,0.0,0.0,0.0
67684459,53930,0,0.998046875,-0.02734375,0.009765625,-0.017578125,0.0,0.0,0.0
67685709,53931,0,0.998046875,-0.025390625,0.01171875,-0.013671875,0.0,0.0,0.0
67686959,53932,0,1.0,-0.02734375,0.017578125,-0.009765625,0.0,0.0,0.0
67688209,53933,0,1.009765625,-0.03125,0.015625,-0.015625,0.0,0.0,0.0
67689459,53934,0,1.009765625,-0.01953125,0.017578125,-0.001953125,0.0,0.0,0.0
67690711,53935,0,0.998046875,-0.03125,0.0078125,-0.0234375,0.0,0.0,0.0
67691961,53936,0,1.01171875,-0.025390625,0.017578125,-0.0078125,0.0,0.0,0.0
67693213,53937,0,0.99609375,-0.0234375,0.01953125,-0.00390625,0.0,0.0,0.0
67694464,53938,0,1.0,-0.02734375,0.01171875,-0.015625,0.0,0.0,0.0
67695715,53939,0,0.998046875,-0.033203125,0.01171875,-0.021484375,0.0,0.0,0.0
67696966,53940,0,1.009765625,-0.025390625,0.009765625,-0.015625,0.0,0.0,0.0
67698216,53941,0,0.998046875,-0.025390625,0.013671875,-0.01171875,0.0,0.0,0.0
67699467,53942,0,1.001953125,-0.021484375,0.01171875,-0.009765625,0.0,0.0,0.0
67700718,53943,0,1.001953125,-0.033203125,0.01171875,-0.021484375,0.0,0.0,0.0
67701968,53944,0,1.00390625,-0.025390625,0.015625,-0.009765625,0.0,0.0,0.0
67703219,53945,0,1.001953125,-0.025390625,0.013671875,-0.01171875,0.0,0.0,0.0
67704470,53946,0,0.998046875,-0.025390625,0.013671875,-0.01171875,0.0,0.0,0.0
67705721,53947,0,1.0,-0.025390625,0.015625,-0.009765625,0.0,0.0,0.0
67706971,53948,0,1.00390625,-0.029296875,0.009765625,-0.01953125,0.0,0.0,0.0
67708223,53949,0,1.005859375,-0.0234375,0.015625,-0.0078125,0.0,0.0,0.0
67709473,53950,0,1.00390625,-0.02734375,0.013671875,-0.013671875,0.0,0.0,0.0
67710723,53951,0,1.005859375,-0.02734375,0.0078125,-0.01953125,0.0,0.0,0.0
67711975,53952,0,1.0078125,-0.025390625,0.01953125,-0.005859375,0.0,0.0,0.0
67713226,53953,0,1.00390625,-0.0234375,0.015625,-0.0078125,0.0,0.0,0.0
67714476,53954,0,1.005859375,-0.0234375,0.01171875,-0.01171875,0.0,0.0,0.0
67715728,53955,0,1.005859375,-0.033203125,0.021484375,-0.01171875,0.0,0.0,0.0
67716979,53956,0,1.005859375,-0.021484375,0.013671875,-0.0078125,0.0,0.0,0.0
67718229,53957,0,1.01171875,-0.025390625,0.0078125,-0.017578125,0.0,0.0,0.0
67719481,53958,0,0.998046875,-0.02734375,0.01171875,-0.015625,0.0,0.0,0.0
67720731,53959,0,1.00390625,-0.02734375,0.017578125,-0.009765625,0.0,0.0,0.0
67721981,53960,0,1.0,-0.03125,0.015625,-0.015625,0.0,0.0,0.0
67723232,53961,0,1.001953125,-0.02734375,0.01171875,-0.015625,0.0,0.0,0.0
67724483,53962,0,1.009765625,-0.029296875,0.01953125,-0.009765625,0.0,0.0,0.0
67725734,53963,0,0.994140625,-0.0234375,0.015625,-0.0078125,0.0,0.0,0.0
67726986,53964,0,1.00390625,-0.025390625,0.013671875,-0.01171875,0.0,0.0,0.0
67728236,53965,0,1.0,-0.029296875,0.017578125,-0.01171875,0.0,0.0,0.0
67729486,53966,0,1.001953125,-0.02734375,0.015625,-0.01171875,0.0,0.0,0.0
67730737,53967,0,0.998046875,-0.025390625,0.017578125,-0.0078125,0.0,0.0,0.0
67731987,53968,0,1.001953125,-0.021484375,0.021484375,0.0,0.0,0.0,0.0
67733238,53969,0,1.005859375,-0.025390625,0.0078125,-0.017578125,0.0,0.0,0.0
67734489,53970,0,1.015625,-0.025390625,0.015625,-0.009765625,0.0,0.0,0.0
67735740,53971,0,1.00390625,-0.025390625,0.015625,-0.009765625,0.0,0.0,0.0
67736991,53972,0,1.001953125,-0.029296875,0.015625,-0.013671875,0.0,0.0,0.0
67738241,53973,0,1.005859375,-0.0234375,0.017578125,-0.005859375,0.0,0.0,0.0
67739492,53974,0,1.0078125,-0.0234375,0.013671875,-0.009765625,0.0,0.0,0.0
67740744,53975,0,0.998046875,-0.025390625,0.017578125,-0.0078125,0.0,0.0,0.0
67741994,53976,0,1.009765625,-0.025390625,0.015625,-0.009765625,0.0,0.0,0.0
67743245,53977,0,1.005859375,-0.021484375,0.015625,-0.005859375,0.0,0.0,0.0
67744496,53978,0,1.0,-0.029296875,0.017578125,-0.01171875,0.0,0.0,0.0
67745747,53979,0,1.00390625,-0.029296875,0.01953125,-0.009765625,0.0,0.0,0.0
67746998,53980,0,1.001953125,-0.021484375,0.015625,-0.005859375,0.0,0.0,0.0
67748249,53981,0,1.001953125,-0.029296875,0.015625,-0.013671875,0.0,0.0,0.0
67749499,53982,0,1.0,-0.025390625,0.0078125,-0.017578125,0.0,0.0,0.0
67750751,53983,0,1.00390625,-0.03125,0.015625,-0.015625,0.0,0.0,0.0
67752002,53984,0,1.005859375,-0.025390625,0.01953125,-0.005859375,0.0,0.0,0.0
67753253,53985,0,1.009765625,-0.025390625,0.01171875,-0.013671875,0.0,0.0,0.0
67754503,53986,0,1.00390625,-0.02734375,0.01171875,-0.015625,0.0,0.0,0.0
67755755,53987,0,1.00390625,-0.025390625,0.017578125,-0.0078125,0.0,0.0,0.0
67757005,53988,0,1.00390625,-0.025390625,0.015625,-0.009765625,0.0,0.0,0.0
67758256,53989,0,1.001953125,-0.02734375,0.017578125,-0.009765625,0.0,0.0,0.0
67759506,53990,0,1.00390625,-0.02734375,0.017578125,-0.009765625,0.0,0.0,0.0
67760757,53991,0,1.001953125,-0.02734375,0.01953125,-0.0078125,0.0,0.0,0.0
67762008,53992,0,1.001953125,-0.025390625,0.015625,-0.009765625,0.0,0.0,0.0
67763258,53993,0,1.005859375,-0.029296875,0.015625,-0.013671875,0.0,0.0,0.0
67764508,53994,0,1.00390625,-0.02734375,0.01171875,-0.015625,0.0,0.0,0.0
67765759,53995,0,1.00390625,-0.025390625,0.015625,-0.009765625,0.0,0.0,0.0
67767009,53996,0,1.005859375,-0.025390625,0.01171875,-0.013671875,0.0,0.0,0.0
67768259,53997,0,1.009765625,-0.029296875,0.013671875,-0.015625,0.0,0.0,0.0
67769510,53998,0,0.998046875,-0.029296875,0.009765625,-0.01953125,0.0,0.0,0.0
67770762,53999,0,1.001953125,-0.021484375,0.017578125,-0.00390625,0.0,0.0,0.0
67772012,54000,0,1.0,-0.025390625,0.013671875,-0.01171875,0.0,0.0,0.0
67773271,54001,0,1.0078125,-0.0234375,0.017578125,-0.005859375,0.0,0.0,0.0
67774521,54002,0,1.00390625,-0.025390625,0.0078125,-0.017578125,0.0,0.0,0.0
67775773,54003,0,1.017578125,-0.021484375,0.015625,-0.005859375,0.0,0.0,0.0
67777023,54004,0,1.00390625,-0.025390625,0.015625,-0.009765625,0.0,0.0,0.0
67778274,54005,0,1.00390625,-0.0234375,0.013671875,-0.009765625,0.0,0.0,0.0
67779525,54006,0,1.0,-0.02734375,0.021484375,-0.005859375,0.0,0.0,0.0
67780776,54007,0,0.998046875,-0.021484375,0.01171875,-0.009765625,0.0,0.0,0.0
67782026,54008,0,1.0078125,-0.02734375,0.015625,-0.01171875,0.0,0.0,0.0
67783276,54009,0,1.00390625,-0.025390625,0.015625,-0.009765625,0.0,0.0,0.0
67784527,54010,0,0.99609375,-0.02734375,0.009765625,-0.017578125,0.0,0.0,0.0
67785778,54011,0,1.005859375,-0.0234375,0.009765625,-0.013671875,0.0,0.0,0.0
67787029,54012,0,1.001953125,-0.025390625,0.01953125,-0.005859375,0.0,0.0,0.0
67788280,54013,0,0.998046875,-0.0234375,0.013671875,-0.009765625,0.0,0.0,0.0
67789531,54014,0,1.005859375,-0.0234375,0.015625,-0.0078125,0.0,0.0,0.0
67790783,54015,0,1.0,-0.029296875,0.017578125,-0.01171875,0.0,0.0,0.0
67792034,54016,0,1.0078125,-0.025390625,0.015625,-0.009765625,0.0,0.0,0.0
67793286,54017,0,1.01171875,-0.02734375,0.015625,-0.01171875,0.0,0.0,0.0
67794537,54018,0,1.00390625,-0.02734375,0.017578125,-0.009765625,0.0,0.0,0.0
67795789,54019,0,1.0,-0.025390625,0.021484375,-0.00390625,0.0,0.0,0.0
67797039,54020,0,0.994140625,-0.021484375,0.01953125,-0.001953125,0.0,0.0,0.0
67798289,54021,0,0.998046875,-0.025390625,0.021484375,-0.00390625,0.0,0.0,0.0
67799541,54022,0,1.0,-0.025390625,0.01953125,-0.005859375,0.0,0.0,0.0
67800792,54023,0,1.001953125,-0.025390625,0.021484375,-0.00390625,0.0,0.0,0.0
67802044,54024,0,1.013671875,-0.025390625,0.015625,-0.009765625,0.0,0.0,0.0
67803294,54025,0,1.009765625,-0.025390625,0.021484375,-0.00390625,0.0,0.0,0.0
67804544,54026,0,1.0078125,-0.029296875,0.017578125,-0.01171875,0.0,0.0,0.0
67805795,54027,0,0.994140625,-0.025390625,0.009765625,-0.015625,0.0,0.0,0.0
67807045,54028,0,1.0,-0.029296875,0.01171875,-0.017578125,0.0,0.0,0.0
67808295,54029,0,0.998046875,-0.025390625,0.01953125,-0.005859375,0.0,0.0,0.0
67809546,54030,0,1.001953125,-0.02734375,0.021484375,-0.005859375,0.0,0.0,0.0
67810797,54031,0,1.00390625,-0.0234375,0.017578125,-0.005859375,0.0,0.0,0.0
67812048,54032,0,1.0078125,-0.013671875,0.021484375,0.0078125,0.0,0.0,0.0
67813299,54033,0,1.005859375,-0.001953125,0.01953125,0.017578125,0.0,0.0,0.0
67814550,54034,0,1.0078125,-0.001953125,0.0234375,0.021484375,0.0,0.0,0.0
67815800,54035,0,1.00390625,-0.005859375,0.025390625,0.01953125,0.0,0.0,0.0
67817052,54036,0,1.0078125,-0.009765625,0.017578125,0.0078125,0.0,0.0,0.0
67818303,54037,0,1.001953125,-0.01953125,0.021484375,0.001953125,0.0,0.0,0.0
67819554,54038,0,1.0078125,-0.037109375,0.009765625,-0.02734375,0.0,0.0,0.0
67820805,54039,0,1.001953125,-0.0390625,0.0078125,-0.03125,0.0,0.0,0.0
67822057,54040,0,1.0,-0.04296875,0.015625,-0.02734375,0.0,0.0,0.0
67823308,54041,0,1.0078125,-0.046875,0.001953125,-0.044921875,0.0,0.0,0.0
67824560,54042,0,1.001953125,-0.044921875,0.009765625,-0.03515625,0.0,0.0,0.0
67825811,54043,0,1.015625,-0.033203125,0.005859375,-0.02734375,0.0,0.0,0.0
67827063,54044,0,1.001953125,-0.025390625,0.01171875,-0.013671875,0.0,0.0,0.0
67828314,54045,0,1.00390625,-0.01171875,0.01171875,0.0,0.0,0.0,0.0
67829565,54046,0,0.998046875,-0.0078125,0.01953125,0.01171875,0.0,0.0,0.0
67830816,54047,0,1.0078125,-0.0078125,0.0234375,0.015625,0.0,0.0,0.0
67832066,54048,0,0.998046875,-0.017578125,0.01953125,0.001953125,0.0,0.0,0.0
67833318,54049,0,1.009765625,-0.021484375,0.01953125,-0.001953125,0.0,0.0,0.0
67834569,54050,0,1.00390625,-0.029296875,0.015625,-0.013671875,0.0,0.0,0.0
67835819,54051,0,1.0078125,-0.03515625,0.005859375,-0.029296875,0.0,0.0,0.0
67837070,54052,0,1.0,-0.037109375,0.0078125,-0.029296875,0.0,0.0,0.0
67838321,54053,0,1.005859375,-0.0390625,0.0078125,-0.03125,0.0,0.0,0.0
67839572,54054,0,1.005859375,-0.037109375,0.01171875,-0.025390625,0.0,0.0,0.0
67840823,54055,0,1.0,-0.03515625,0.009765625,-0.025390625,0.0,0.0,0.0
67842074,54056,0,0.998046875,-0.02734375,0.015625,-0.01171875,0.0,0.0,0.0
67843325,54057,0,1.009765625,-0.0234375,0.017578125,-0.005859375,0.0,0.0,0.0
67844575,54058,0,1.005859375,-0.025390625,0.0078125,-0.017578125,0.0,0.0,0.0
67845825,54059,0,0.99609375,-0.025390625,0.013671875,-0.01171875,0.0,0.0,0.0
67847076,54060,0,1.0,-0.025390625,0.015625,-0.009765625,0.0,0.0,0.0
67848326,54061,0,1.01171875,-0.01953125,0.0078125,-0.01171875,0.0,0.0,0.0
67849577,54062,0,1.00390625,-0.025390625,0.021484375,-0.00390625,0.0,0.0,0.0
67850828,54063,0,1.009765625,-0.021484375,0.015625,-0.005859375,0.0,0.0,0.0
67852078,54064,0,1.0,-0.02734375,0.025390625,-0.001953125,0.0,0.0,0.0
67853329,54065,0,1.00390625,-0.025390625,0.01953125,-0.005859375,0.0,0.0,0.0
67854581,54066,0,1.005859375,-0.029296875,0.01953125,-0.009765625,0.0,0.0,0.0
67855833,54067,0,1.0,-0.025390625,0.01953125,-0.005859375,0.0,0.0,0.0
67857083,54068,0,1.001953125,-0.0234375,0.01953125,-0.00390625,0.0,0.0,0.0
67858333,54069,0,1.005859375,-0.03125,0.017578125,-0.013671875,0.0,0.0,0.0
67859584,54070,0,1.005859375,-0.025390625,0.017578125,-0.0078125,0.0,0.0,0.0
67860835,54071,0,1.001953125,-0.02734375,0.013671875,-0.013671875,0.0,0.0,0.0
67862085,54072,0,1.00390625,-0.02734375,0.01171875,-0.015625,0.0,0.0,0.0
67863336,54073,0,1.005859375,-0.029296875,0.021484375,-0.0078125,0.0,0.0,0.0
67864587,54074,0,1.005859375,-0.029296875,0.017578125,-0.01171875,0.0,0.0,0.0
67865838,54075,0,1.001953125,-0.02734375,0.013671875,-0.013671875,0.0,0.0,0.0
67867090,54076,0,1.0,-0.029296875,0.015625,-0.013671875,0.0,0.0,0.0
67868341,54077,0,1.0,-0.0234375,0.017578125,-0.005859375,0.0,0.0,0.0
67869592,54078,0,1.001953125,-0.025390625,0.013671875,-0.01171875,0.0,0.0,0.0
67870844,54079,0,1.001953125,-0.0234375,0.009765625,-0.013671875,0.0,0.0,0.0
67872095,54080,0,1.0,-0.025390625,0.015625,-0.009765625,0.0,0.0,0.0
67873346,54081,0,1.01171875,-0.03125,0.01953125,-0.01171875,0.0,0.0,0.0
67874597,54082,0,1.005859375,-0.025390625,0.01953125,-0.005859375,0.0,0.0,0.0
67875849,54083,0,0.99609375,-0.02734375,0.01953125,-0.0078125,0.0,0.0,0.0
67877099,54084,0,1.005859375,-0.033203125,0.00390625,-0.029296875,0.0,0.0,0.0
67878351,54085,0,1.0,-0.029296875,0.009765625,-0.01953125,0.0,0.0,0.0
