t_us,frame_id,sensor_id,accX,accY,accZ,acc_sum_YZ,magX,magY,magZ
70067415,55835,0,1.001953125,-0.03515625,0.015625,-0.01953125,0.0,0.0,0.0
70068666,55836,0,1.005859375,-0.033203125,0.021484375,-0.01171875,0.0,0.0,0.0
70069917,55837,0,1.009765625,-0.025390625,0.01953125,-0.005859375,0.0,0.0,0.0
70071167,55838,0,1.009765625,-0.02734375,0.017578125,-0.009765625,0.0,0.0,0.0
70072417,55839,0,1.015625,-0.0234375,0.013671875,-0.009765625,0.0,0.0,0.0
70073669,55840,0,1.001953125,-0.041015625,0.0078125,-0.033203125,0.0,0.0,0.0
70074920,55841,0,0.99609375,-0.0234375,0.015625,-0.0078125,0.0,0.0,0.0
70076171,55842,0,1.00390625,-0.02734375,0.013671875,-0.013671875,0.0,0.0,0.0
70077421,55843,0,0.99609375,-0.025390625,0.025390625,0.0,0.0,0.0,0.0
70078673,55844,0,1.0,-0.033203125,0.015625,-0.017578125,0.0,0.0,0.0
70079923,55845,0,1.0078125,-0.033203125,0.015625,-0.017578125,0.0,0.0,0.0
70081174,55846,0,1.0078125,-0.029296875,0.021484375,-0.0078125,0.0,0.0,0.0
70082425,55847,0,1.009765625,-0.02734375,0.017578125,-0.009765625,0.0,0.0,0.0
70083677,55848,0,1.0,-0.03515625,0.021484375,-0.013671875,0.0,0.0,0.0
70084927,55849,0,1.001953125,-0.033203125,0.01953125,-0.013671875,0.0,0.0,0.0
70086177,55850,0,1.001953125,-0.03125,0.01953125,-0.01171875,0.0,0.0,0.0
70087429,55851,0,0.99609375,-0.03515625,0.021484375,-0.013671875,0.0,0.0,0.0
70088679,55852,0,1.005859375,-0.02734375,0.017578125,-0.009765625,0.0,0.0,0.0
70089931,55853,0,1.00390625,-0.029296875,0.015625,-0.013671875,0.0,0.0,0.0
70091181,55854,0,1.001953125,-0.029296875,0.013671875,-0.015625,0.0,0.0,0.0
70092431,55855,0,1.001953125,-0.029296875,0.013671875,-0.015625,0.0,0.0,0.0
70093683,55856,0,1.001953125,-0.03515625,0.01953125,-0.015625,0.0,0.0,0.0
70094933,55857,0,1.00390625,-0.03515625,0.015625,-0.01953125,0.0,0.0,0.0
70096183,55858,0,0.998046875,-0.03125,0.015625,-0.015625,0.0,0.0,0.0
70097434,55859,0,1.009765625,-0.033203125,0.013671875,-0.01953125,0.0,0.0,0.0
70098685,55860,0,1.0,-0.02734375,0.021484375,-0.005859375,0.0,0.0,0.0
70099936,55861,0,0.994140625,-0.02734375,0.0234375,-0.00390625,0.0,0.0,0.0
70101186,55862,0,1.0078125,-0.029296875,0.017578125,-0.01171875,0.0,0.0,0.0
70102437,55863,0,1.009765625,-0.033203125,0.017578125,-0.015625,0.0,0.0,0.0
70103687,55864,0,1.0078125,-0.033203125,0.02734375,-0.005859375,0.0,0.0,0.0
70104937,55865,0,0.990234375,-0.03125,0.01953125,-0.01171875,0.0,0.0,0.0
70106188,55866,0,1.0,-0.03125,0.01171875,-0.01953125,0.0,0.0,0.0
70107440,55867,0,1.009765625,-0.029296875,0.017578125,-0.01171875,0.0,0.0,0.0
70108690,55868,0,1.00390625,-0.03125,0.017578125,-0.013671875,0.0,0.0,0.0
70109942,55869,0,1.01171875,-0.029296875,0.01953125,-0.009765625,0.0,0.0,0.0
70111193,55870,0,1.0,-0.033203125,0.01953125,-0.013671875,0.0,0.0,0.0
70112445,55871,0,0.998046875,-0.03125,0.015625,-0.015625,0.0,0.0,0.0
70113695,55872,0,0.99609375,-0.033203125,0.009765625,-0.0234375,0.0,0.0,0.0
70114947,55873,0,1.001953125,-0.033203125,0.01953125,-0.013671875,0.0,0.0,0.0
70116198,55874,0,0.998046875,-0.03515625,0.015625,-0.01953125,0.0,0.0,0.0
70117450,55875,0,1.0,-0.03515625,0.01953125,-0.015625,0.0,0.0,0.0
70118700,55876,0,1.0,-0.03125,0.01171875,-0.01953125,0.0,0.0,0.0
70119952,55877,0,1.00390625,-0.033203125,0.01953125,-0.013671875,0.0,0.0,0.0
70121203,55878,0,1.00390625,-0.033203125,0.01953125,-0.013671875,0.0,0.0,0.0
70122454,55879,0,1.0078125,-0.03125,0.021484375,-0.009765625,0.0,0.0,0.0
70123705,55880,0,1.005859375,-0.033203125,0.017578125,-0.015625,0.0,0.0,0.0
70124957,55881,0,1.0078125,-0.033203125,0.01171875,-0.021484375,0.0,0.0,0.0
70126207,55882,0,1.00390625,-0.033203125,0.021484375,-0.01171875,0.0,0.0,0.0
70127459,55883,0,1.001953125,-0.03125,0.025390625,-0.005859375,0.0,0.0,0.0
70128709,55884,0,1.01171875,-0.029296875,0.015625,-0.013671875,0.0,0.0,0.0
70129959,55885,0,1.009765625,-0.02734375,0.017578125,-0.009765625,0.0,0.0,0.0
70131209,55886,0,0.99609375,-0.033203125,0.017578125,-0.015625,0.0,0.0,0.0
70132459,55887,0,1.0078125,-0.03515625,0.021484375,-0.013671875,0.0,0.0,0.0
70133711,55888,0,0.99609375,-0.03125,0.015625,-0.015625,0.0,0.0,0.0
70134961,55889,0,1.00390625,-0.03125,0.017578125,-0.013671875,0.0,0.0,0.0
70136213,55890,0,1.00390625,-0.03515625,0.017578125,-0.017578125,0.0,0.0,0.0
70137464,55891,0,1.005859375,-0.03515625,0.017578125,-0.017578125,0.0,0.0,0.0
70138715,55892,0,1.005859375,-0.03125,0.015625,-0.015625,0.0,0.0,0.0
70139966,55893,0,1.00390625,-0.033203125,0.01953125,-0.013671875,0.0,0.0,0.0
70141216,55894,0,1.005859375,-0.03125,0.01171875,-0.01953125,0.0,0.0,0.0
70142467,55895,0,1.00390625,-0.03125,0.013671875,-0.017578125,0.0,0.0,0.0
70143718,55896,0,1.005859375,-0.033203125,0.01953125,-0.013671875,0.0,0.0,0.0
70144968,55897,0,1.0,-0.03125,0.013671875,-0.017578125,0.0,0.0,0.0
70146219,55898,0,1.0,-0.02734375,0.021484375,-0.005859375,0.0,0.0,0.0
70147470,55899,0,1.009765625,-0.033203125,0.017578125,-0.015625,0.0,0.0,0.0
70148721,55900,0,1.00390625,-0.025390625,0.01953125,-0.005859375,0.0,0.0,0.0
70149971,55901,0,1.00390625,-0.0390625,0.01953125,-0.01953125,0.0,0.0,0.0
70151223,55902,0,0.998046875,-0.03125,0.01953125,-0.01171875,0.0,0.0,0.0
70152473,55903,0,1.015625,-0.03515625,0.01171875,-0.0234375,0.0,0.0,0.0
70153723,55904,0,1.0078125,-0.037109375,0.01171875,-0.025390625,0.0,0.0,0.0
70154975,55905,0,0.998046875,-0.033203125,0.01953125,-0.013671875,0.0,0.0,0.0
70156226,55906,0,1.015625,-0.03125,0.015625,-0.015625,0.0,0.0,0.0
70157476,55907,0,0.994140625,-0.03515625,0.01953125,-0.015625,0.0,0.0,0.0
70158728,55908,0,0.998046875,-0.03515625,0.01953125,-0.015625,0.0,0.0,0.0
70159979,55909,0,1.00390625,-0.033203125,0.01953125,-0.013671875,0.0,0.0,0.0
70161229,55910,0,1.001953125,-0.029296875,0.021484375,-0.0078125,0.0,0.0,0.0
70162481,55911,0,1.001953125,-0.033203125,0.015625,-0.017578125,0.0,0.0,0.0
70163731,55912,0,1.005859375,-0.03125,0.0234375,-0.0078125,0.0,0.0,0.0
70164981,55913,0,0.998046875,-0.02734375,0.01953125,-0.0078125,0.0,0.0,0.0
70166232,55914,0,1.00390625,-0.03125,0.021484375,-0.009765625,0.0,0.0,0.0
70167483,55915,0,1.00390625,-0.03515625,0.01953125,-0.015625,0.0,0.0,0.0
70168734,55916,0,1.001953125,-0.02734375,0.015625,-0.01171875,0.0,0.0,0.0
70169986,55917,0,1.005859375,-0.029296875,0.015625,-0.013671875,0.0,0.0,0.0
70171236,55918,0,1.0078125,-0.033203125,0.017578125,-0.015625,0.0,0.0,0.0
70172486,55919,0,1.0078125,-0.03125,0.017578125,-0.013671875,0.0,0.0,0.0
70173737,55920,0,1.005859375,-0.033203125,0.017578125,-0.015625,0.0,0.0,0.0
70174987,55921,0,1.0078125,-0.029296875,0.017578125,-0.01171875,0.0,0.0,0.0
70176238,55922,0,1.001953125,-0.03125,0.01953125,-0.01171875,0.0,0.0,0.0
70177489,55923,0,1.009765625,-0.033203125,0.017578125,-0.015625,0.0,0.0,0.0
70178740,55924,0,1.015625,-0.033203125,0.021484375,-0.01171875,0.0,0.0,0.0
70179991,55925,0,1.005859375,-0.03515625,0.021484375,-0.013671875,0.0,0.0,0.0
70181241,55926,0,1.0,-0.03125,0.01953125,-0.01171875,0.0,0.0,0.0
70182492,55927,0,1.005859375,-0.03125,0.01171875,-0.01953125,0.0,0.0,0.0
70183744,55928,0,0.998046875,-0.033203125,0.021484375,-0.01171875,0.0,0.0,0.0
70184994,55929,0,1.001953125,-0.0234375,0.017578125,-0.005859375,0.0,0.0,0.0
70186245,55930,0,1.001953125,-0.03515625,0.01953125,-0.015625,0.0,0.0,0.0
70187496,55931,0,1.0,-0.02734375,0.013671875,-0.013671875,0.0,0.0,0.0
70188747,55932,0,1.005859375,-0.03125,0.015625,-0.015625,0.0,0.0,0.0
70189998,55933,0,1.0078125,-0.025390625,0.015625,-0.009765625,0.0,0.0,0.0
70191249,55934,0,1.00390625,-0.025390625,0.017578125,-0.0078125,0.0,0.0,0.0
70192499,55935,0,1.0078125,-0.033203125,0.013671875,-0.01953125,0.0,0.0,0.0
70193751,55936,0,1.001953125,-0.033203125,0.017578125,-0.015625,0.0,0.0,0.0
70195002,55937,0,0.998046875,-0.03515625,0.021484375,-0.013671875,0.0,0.0,0.0
70196253,55938,0,1.001953125,-0.033203125,0.017578125,-0.015625,0.0,0.0,0.0
70197503,55939,0,1.00390625,-0.029296875,0.017578125,-0.01171875,0.0,0.0,0.0
70198755,55940,0,1.0078125,-0.029296875,0.017578125,-0.01171875,0.0,0.0,0.0
70200005,55941,0,1.005859375,-0.03125,0.0234375,-0.0078125,0.0,0.0,0.0
70201256,55942,0,1.0078125,-0.029296875,0.01171875,-0.017578125,0.0,0.0,0.0
70202506,55943,0,1.00390625,-0.033203125,0.01953125,-0.013671875,0.0,0.0,0.0
70203757,55944,0,1.0,-0.03515625,0.021484375,-0.013671875,0.0,0.0,0.0
70205008,55945,0,0.9921875,-0.02734375,0.017578125,-0.009765625,0.0,0.0,0.0
70206258,55946,0,0.99609375,-0.029296875,0.0234375,-0.005859375,0.0,0.0,0.0
70207508,55947,0,1.00390625,-0.029296875,0.009765625,-0.01953125,0.0,0.0,0.0
70208759,55948,0,1.0,-0.029296875,0.01953125,-0.009765625,0.0,0.0,0.0
70210010,55949,0,1.0,-0.02734375,0.015625,-0.01171875,0.0,0.0,0.0
70211260,55950,0,0.998046875,-0.03125,0.015625,-0.015625,0.0,0.0,0.0
70212510,55951,0,1.0078125,-0.03125,0.015625,-0.015625,0.0,0.0,0.0
70213762,55952,0,1.00390625,-0.03125,0.015625,-0.015625,0.0,0.0,0.0
70215012,55953,0,1.00390625,-0.033203125,0.01171875,-0.021484375,0.0,0.0,0.0
70216271,55954,0,1.00390625,-0.02734375,0.015625,-0.01171875,0.0,0.0,0.0
70217521,55955,0,1.005859375,-0.03125,0.015625,-0.015625,0.0,0.0,0.0
70218773,55956,0,1.005859375,-0.03125,0.013671875,-0.017578125,0.0,0.0,0.0
70220023,55957,0,1.001953125,-0.03125,0.015625,-0.015625,0.0,0.0,0.0
70221274,55958,0,1.001953125,-0.033203125,0.015625,-0.017578125,0.0,0.0,0.0
70222525,55959,0,1.0078125,-0.03125,0.015625,-0.015625,0.0,0.0,0.0
70223776,55960,0,1.001953125,-0.02734375,0.01953125,-0.0078125,0.0,0.0,0.0
70225026,55961,0,1.001953125,-0.029296875,0.015625,-0.013671875,0.0,0.0,0.0
70226276,55962,0,1.00390625,-0.029296875,0.013671875,-0.015625,0.0,0.0,0.0
70227527,55963,0,0.998046875,-0.03515625,0.015625,-0.01953125,0.0,0.0,0.0
70228778,55964,0,1.0,-0.029296875,0.017578125,-0.01171875,0.0,0.0,0.0
70230029,55965,0,1.00390625,-0.03125,0.01953125,-0.01171875,0.0,0.0,0.0
70231280,55966,0,1.0,-0.03125,0.017578125,-0.013671875,0.0,0.0,0.0
70232531,55967,0,0.99609375,-0.033203125,0.021484375,-0.01171875,0.0,0.0,0.0
70233783,55968,0,1.013671875,-0.02734375,0.021484375,-0.005859375,0.0,0.0,0.0
70235034,55969,0,1.0,-0.029296875,0.017578125,-0.01171875,0.0,0.0,0.0
70236286,55970,0,1.005859375,-0.029296875,0.01953125,-0.009765625,0.0,0.0,0.0
70237537,55971,0,1.0,-0.03125,0.015625,-0.015625,0.0,0.0,0.0
70238789,55972,0,0.998046875,-0.029296875,0.01953125,-0.009765625,0.0,0.0,0.0
70240039,55973,0,1.001953125,-0.029296875,0.015625,-0.013671875,0.0,0.0,0.0
70241289,55974,0,1.001953125,-0.029296875,0.01953125,-0.009765625,0.0,0.0,0.0
70242541,55975,0,0.99609375,-0.03125,0.021484375,-0.009765625,0.0,0.0,0.0
70243792,55976,0,0.998046875,-0.03125,0.013671875,-0.017578125,0.0,0.0,0.0
70245044,55977,0,1.001953125,-0.033203125,0.017578125,-0.015625,0.0,0.0,0.0
70246294,55978,0,1.005859375,-0.033203125,0.015625,-0.017578125,0.0,0.0,0.0
70247544,55979,0,1.0078125,-0.02734375,0.015625,-0.01171875,0.0,0.0,0.0
70248795,55980,0,1.005859375,-0.03125,0.021484375,-0.009765625,0.0,0.0,0.0
70250045,55981,0,1.0078125,-0.02734375,0.017578125,-0.009765625,0.0,0.0,0.0
70251295,55982,0,1.005859375,-0.03125,0.01953125,-0.01171875,0.0,0.0,0.0
70252546,55983,0,1.005859375,-0.033203125,0.017578125,-0.015625,0.0,0.0,0.0
70253797,55984,0,1.0078125,-0.029296875,0.015625,-0.013671875,0.0,0.0,0.0
70255048,55985,0,1.00390625,-0.029296875,0.017578125,-0.01171875,0.0,0.0,0.0
70256299,55986,0,1.00390625,-0.03125,0.01953125,-0.01171875,0.0,0.0,0.0
70257550,55987,0,1.005859375,-0.037109375,0.015625,-0.021484375,0.0,0.0,0.0
70258800,55988,0,1.01171875,-0.02734375,0.015625,-0.01171875,0.0,0.0,0.0
70260052,55989,0,1.00390625,-0.025390625,0.01953125,-0.005859375,0.0,0.0,0.0
70261303,55990,0,1.017578125,-0.037109375,0.015625,-0.021484375,0.0,0.0,0.0
70262554,55991,0,1.001953125,-0.029296875,0.013671875,-0.015625,0.0,0.0,0.0
70263805,55992,0,1.009765625,-0.029296875,0.015625,-0.013671875,0.0,0.0,0.0
70265057,55993,0,0.998046875,-0.033203125,0.013671875,-0.01953125,0.0,0.0,0.0
70266308,55994,0,0.9921875,-0.03125,0.01953125,-0.01171875,0.0,0.0,0.0
70267560,55995,0,1.001953125,-0.02734375,0.01171875,-0.015625,0.0,0.0,0.0
70268811,55996,0,1.005859375,-0.03515625,0.013671875,-0.021484375,0.0,0.0,0.0
70270063,55997,0,1.0078125,-0.033203125,0.015625,-0.017578125,0.0,0.0,0.0
70271314,55998,0,1.005859375,-0.033203125,0.021484375,-0.01171875,0.0,0.0,0.0
70272565,55999,0,1.001953125,-0.03125,0.021484375,-0.009765625,0.0,0.0,0.0
70273816,56000,0,1.001953125,-0.02734375,0.021484375,-0.005859375,0.0,0.0,0.0
70275066,56001,0,1.005859375,-0.03125,0.021484375,-0.009765625,0.0,0.0,0.0
70276318,56002,0,1.001953125,-0.02734375,0.01171875,-0.015625,0.0,0.0,0.0
70277569,56003,0,1.0078125,-0.02734375,0.01953125,-0.0078125,0.0,0.0,0.0
70278819,56004,0,1.001953125,-0.025390625,0.025390625,0.0,0.0,0.0,0.0
70280070,56005,0,1.001953125,-0.029296875,0.01953125,-0.009765625,0.0,0.0,0.0
70281321,56006,0,1.0078125,-0.033203125,0.015625,-0.017578125,0.0,0.0,0.0
70282572,56007,0,1.005859375,-0.029296875,0.009765625,-0.01953125,0.0,0.0,0.0
70283823,56008,0,1.009765625,-0.02734375,0.015625,-0.01171875,0.0,0.0,0.0
70285074,56009,0,1.001953125,-0.03125,0.013671875,-0.017578125,0.0,0.0,0.0
70286325,56010,0,1.005859375,-0.029296875,0.01171875,-0.017578125,0.0,0.0,0.0
70287575,56011,0,1.001953125,-0.029296875,0.021484375,-0.0078125,0.0,0.0,0.0
70288825,56012,0,0.990234375,-0.029296875,0.017578125,-0.01171875,0.0,0.0,0.0
70290076,56013,0,0.99609375,-0.033203125,0.015625,-0.017578125,0.0,0.0,0.0
70291326,56014,0,0.998046875,-0.025390625,0.017578125,-0.0078125,0.0,0.0,0.0
70292577,56015,0,1.0,-0.033203125,0.015625,-0.017578125,0.0,0.0,0.0
70293828,56016,0,1.009765625,-0.033203125,0.015625,-0.017578125,0.0,0.0,0.0
70295078,56017,0,1.00390625,-0.029296875,0.015625,-0.013671875,0.0,0.0,0.0
70296329,56018,0,1.001953125,-0.033203125,0.021484375,-0.01171875,0.0,0.0,0.0
70297581,56019,0,1.001953125,-0.03125,0.01953125,-0.01171875,0.0,0.0,0.0
70298833,56020,0,1.0,-0.029296875,0.01953125,-0.009765625,0.0,0.0,0.0
70300083,56021,0,1.005859375,-0.037109375,0.01953125,-0.017578125,0.0,0.0,0.0
70301333,56022,0,1.005859375,-0.03125,0.01953125,-0.01171875,0.0,0.0,0.0
70302584,56023,0,1.005859375,-0.03515625,0.021484375,-0.013671875,0.0,0.0,0.0
70303835,56024,0,0.99609375,-0.033203125,0.01953125,-0.013671875,0.0,0.0,0.0
70305085,56025,0,0.99609375,-0.03125,0.01171875,-0.01953125,0.0,0.0,0.0
70306336,56026,0,1.0078125,-0.033203125,0.021484375,-0.01171875,0.0,0.0,0.0
70307587,56027,0,0.998046875,-0.03125,0.017578125,-0.013671875,0.0,0.0,0.0
70308838,56028,0,1.0078125,-0.02734375,0.015625,-0.01171875,0.0,0.0,0.0
70310090,56029,0,1.005859375,-0.03515625,0.01953125,-0.015625,0.0,0.0,0.0
70311341,56030,0,1.00390625,-0.021484375,0.01953125,-0.001953125,0.0,0.0,0.0
70312592,56031,0,0.998046875,-0.03125,0.01953125,-0.01171875,0.0,0.0,0.0
70313844,56032,0,0.99609375,-0.029296875,0.01953125,-0.009765625,0.0,0.0,0.0
70315095,56033,0,1.0078125,-0.033203125,0.01171875,-0.021484375,0.0,0.0,0.0
70316346,56034,0,1.009765625,-0.033203125,0.017578125,-0.015625,0.0,0.0,0.0
70317597,56035,0,1.0,-0.033203125,0.01953125,-0.013671875,0.0,0.0,0.0
70318849,56036,0,1.00390625,-0.03125,0.015625,-0.015625,0.0,0.0,0.0
70320099,56037,0,0.990234375,-0.03515625,0.01171875,-0.0234375,0.0,0.0,0.0
70321351,56038,0,0.99609375,-0.03125,0.013671875,-0.017578125,0.0,0.0,0.0
70322602,56039,0,0.998046875,-0.03515625,0.0234375,-0.01171875,0.0,0.0,0.0
70323854,56040,0,1.00390625,-0.033203125,0.017578125,-0.015625,0.0,0.0,0.0
70325104,56041,0,1.00390625,-0.03125,0.017578125,-0.013671875,0.0,0.0,0.0
70326354,56042,0,1.001953125,-0.029296875,0.017578125,-0.01171875,0.0,0.0,0.0
70327605,56043,0,1.00390625,-0.029296875,0.015625,-0.013671875,0.0,0.0,0.0
70328855,56044,0,1.00390625,-0.033203125,0.01953125,-0.013671875,0.0,0.0,0.0
70330107,56045,0,1.001953125,-0.029296875,0.015625,-0.013671875,0.0,0.0,0.0
70331358,56046,0,1.0,-0.03515625,0.015625,-0.01953125,0.0,0.0,0.0
70332609,56047,0,0.998046875,-0.033203125,0.01953125,-0.013671875,0.0,0.0,0.0
70333859,56048,0,1.0,-0.03515625,0.017578125,-0.017578125,0.0,0.0,0.0
70335111,56049,0,1.009765625,-0.029296875,0.0234375,-0.005859375,0.0,0.0,0.0
70336362,56050,0,1.00390625,-0.03515625,0.01953125,-0.015625,0.0,0.0,0.0
70337613,56051,0,1.0,-0.025390625,0.015625,-0.009765625,0.0,0.0,0.0
70338865,56052,0,1.005859375,-0.03125,0.015625,-0.015625,0.0,0.0,0.0
70340115,56053,0,1.0078125,-0.033203125,0.015625,-0.017578125,0.0,0.0,0.0
70341365,56054,0,1.0078125,-0.03125,0.017578125,-0.013671875,0.0,0.0,0.0
70342617,56055,0,1.0,-0.03515625,0.01953125,-0.015625,0.0,0.0,0.0
70343867,56056,0,1.00390625,-0.029296875,0.01953125,-0.009765625,0.0,0.0,0.0
70345118,56057,0,1.0,-0.03515625,0.021484375,-0.013671875,0.0,0.0,0.0
70346369,56058,0,1.001953125,-0.029296875,0.015625,-0.013671875,0.0,0.0,0.0
70347620,56059,0,1.001953125,-0.033203125,0.017578125,-0.015625,0.0,0.0,0.0
70348871,56060,0,1.00390625,-0.03515625,0.021484375,-0.013671875,0.0,0.0,0.0
70350123,56061,0,1.005859375,-0.03125,0.01953125,-0.01171875,0.0,0.0,0.0
70351374,56062,0,1.00390625,-0.033203125,0.015625,-0.017578125,0.0,0.0,0.0
70352624,56063,0,0.998046875,-0.029296875,0.01953125,-0.009765625,0.0,0.0,0.0
70353875,56064,0,1.005859375,-0.025390625,0.01953125,-0.005859375,0.0,0.0,0.0
70355125,56065,0,1.0078125,-0.03515625,0.01953125,-0.015625,0.0,0.0,0.0
70356375,56066,0,1.0078125,-0.03125,0.015625,-0.015625,0.0,0.0,0.0
70357626,56067,0,1.00390625,-0.025390625,0.01953125,-0.005859375,0.0,0.0,0.0
70358877,56068,0,1.005859375,-0.03125,0.017578125,-0.013671875,0.0,0.0,0.0
70360129,56069,0,1.0078125,-0.03125,0.017578125,-0.013671875,0.0,0.0,0.0
70361380,56070,0,1.001953125,-0.03125,0.013671875,-0.017578125,0.0,0.0,0.0
70362630,56071,0,0.998046875,-0.033203125,0.015625,-0.017578125,0.0,0.0,0.0
70363881,56072,0,0.998046875,-0.03125,0.01953125,-0.01171875,0.0,0.0,0.0
70365133,56073,0,1.001953125,-0.029296875,0.017578125,-0.01171875,0.0,0.0,0.0
70366384,56074,0,0.998046875,-0.037109375,0.01953125,-0.017578125,0.0,0.0,0.0
70367634,56075,0,0.998046875,-0.037109375,0.013671875,-0.0234375,0.0,0.0,0.0
70368886,56076,0,1.0078125,-0.033203125,0.01171875,-0.021484375,0.0,0.0,0.0
70370136,56077,0,1.001953125,-0.03125,0.01171875,-0.01953125,0.0,0.0,0.0
70371386,56078,0,1.001953125,-0.037109375,0.0078125,-0.029296875,0.0,0.0,0.0
70372638,56079,0,1.0,-0.03515625,0.01171875,-0.0234375,0.0,0.0,0.0
70373888,56080,0,1.009765625,-0.033203125,0.015625,-0.017578125,0.0,0.0,0.0
70375139,56081,0,1.001953125,-0.03125,0.01953125,-0.01171875,0.0,0.0,0.0
70376391,56082,0,1.0078125,-0.029296875,0.015625,-0.013671875,0.0,0.0,0.0
70377641,56083,0,1.001953125,-0.033203125,0.015625,-0.017578125,0.0,0.0,0.0
70378892,56084,0,1.00390625,-0.03125,0.01953125,-0.01171875,0.0,0.0,0.0
70380142,56085,0,1.001953125,-0.033203125,0.01953125,-0.013671875,0.0,0.0,0.0
70381393,56086,0,1.00390625,-0.02734375,0.017578125,-0.009765625,0.0,0.0,0.0
70382645,56087,0,1.0078125,-0.03125,0.017578125,-0.013671875,0.0,0.0,0.0
70383895,56088,0,1.005859375,-0.02734375,0.01953125,-0.0078125,0.0,0.0,0.0
70385147,56089,0,1.005859375,-0.03515625,0.015625,-0.01953125,0.0,0.0,0.0
70386397,56090,0,0.998046875,-0.0390625,0.009765625,-0.029296875,0.0,0.0,0.0
70387649,56091,0,1.001953125,-0.0390625,0.013671875,-0.025390625,0.0,0.0,0.0
70388899,56092,0,1.00390625,-0.041015625,0.01171875,-0.029296875,0.0,0.0,0.0
70390149,56093,0,1.0,-0.0390625,0.0078125,-0.03125,0.0,0.0,0.0
70391399,56094,0,0.998046875,-0.041015625,0.01171875,-0.029296875,0.0,0.0,0.0
70392650,56095,0,1.009765625,-0.046875,0.0078125,-0.0390625,0.0,0.0,0.0
70393902,56096,0,1.0078125,-0.037109375,0.015625,-0.021484375,0.0,0.0,0.0
70395153,56097,0,0.994140625,-0.03125,0.017578125,-0.013671875,0.0,0.0,0.0
70396404,56098,0,1.0078125,-0.033203125,0.01171875,-0.021484375,0.0,0.0,0.0
70397654,56099,0,1.001953125,-0.04296875,0.013671875,-0.029296875,0.0,0.0,0.0
70398904,56100,0,1.0,-0.041015625,0.013671875,-0.02734375,0.0,0.0,0.0
70400155,56101,0,1.00390625,-0.041015625,0.013671875,-0.02734375,0.0,0.0,0.0
70401407,56102,0,1.005859375,-0.03515625,0.013671875,-0.021484375,0.0,0.0,0.0
70402657,56103,0,1.0,-0.033203125,0.017578125,-0.015625,0.0,0.0,0.0
70403909,56104,0,1.0078125,-0.037109375,0.01171875,-0.025390625,0.0,0.0,0.0
70405159,56105,0,1.00390625,-0.041015625,0.01171875,-0.029296875,0.0,0.0,0.0
70406409,56106,0,0.998046875,-0.048828125,0.0078125,-0.041015625,0.0,0.0,0.0
70407661,56107,0,1.001953125,-0.05078125,0.009765625,-0.041015625,0.0,0.0,0.0
70408911,56108,0,0.99609375,-0.052734375,0.005859375,-0.046875,0.0,0.0,0.0
70410161,56109,0,0.99609375,-0.05859375,0.001953125,-0.056640625,0.0,0.0,0.0
70411411,56110,0,0.99609375,-0.0546875,0.0,-0.0546875,0.0,0.0,0.0
70412663,56111,0,0.990234375,-0.0703125,-0.01171875,-0.08203125,0.0,0.0,0.0
70413913,56112,0,0.998046875,-0.07421875,-0.005859375,-0.080078125,0.0,0.0,0.0
70415164,56113,0,0.994140625,-0.07421875,-0.015625,-0.08984375,0.0,0.0,0.0
70416415,56114,0,0.99609375,-0.05859375,0.005859375,-0.052734375,0.0,0.0,0.0
70417666,56115,0,1.001953125,-0.046875,0.0,-0.046875,0.0,0.0,0.0
70418916,56116,0,0.9921875,-0.0625,-0.005859375,-0.068359375,0.0,0.0,0.0
70420167,56117,0,0.986328125,-0.076171875,-0.005859375,-0.08203125,0.0,0.0,0.0
70421417,56118,0,0.998046875,-0.09375,-0.021484375,-0.115234375,0.0,0.0,0.0
70422668,56119,0,0.9765625,-0.14453125,-0.060546875,-0.205078125,0.0,0.0,-5.188558434756198e+16
70425171,56121,0,0.783203125,-0.634765625,-0.55078125,-1.185546875,0.0,0.0,0.0
70426421,56122,0,0.818359375,0.89453125,0.560546875,1.455078125,0.0,0.0,0.0
70427672,56123,0,1.224609375,0.99609375,0.650390625,1.646484375,0.0,0.0,0.0
70428924,56124,0,1.0625,0.185546875,0.16015625,0.345703125,0.0,0.0,0.0
70430174,56125,0,0.908203125,-0.517578125,-0.142578125,-0.66015625,0.0,0.0,0.0
70431425,56126,0,0.92578125,-0.8515625,-0.361328125,-1.212890625,0.0,0.0,0.0
70432677,56127,0,0.94921875,-0.806640625,-0.384765625,-1.19140625,0.0,0.0,0.0
70433927,56128,0,0.974609375,-0.431640625,-0.19140625,-0.623046875,0.0,0.0,0.0
70435177,56129,0,1.19921875,-0.369140625,0.08984375,-0.279296875,0.0,0.0,0.0
70436429,56130,0,0.986328125,-0.521484375,-0.205078125,-0.7265625,0.0,0.0,0.0
70437679,56131,0,0.990234375,-0.697265625,-0.259765625,-0.95703125,0.0,0.0,0.0
70438931,56132,0,0.912109375,-0.55859375,-0.169921875,-0.728515625,0.0,0.0,0.0
70440181,56133,0,1.060546875,-0.365234375,-0.181640625,-0.546875,0.0,0.0,0.0
70441431,56134,0,1.01171875,-0.21875,-0.115234375,-0.333984375,0.0,0.0,0.0
70442683,56135,0,0.95703125,-0.201171875,-0.0625,-0.263671875,0.0,0.0,0.0
70443933,56136,0,1.017578125,-0.533203125,-0.212890625,-0.74609375,0.0,0.0,0.0
70445183,56137,0,1.0078125,-1.03515625,-0.392578125,-1.427734375,0.0,0.0,0.0
70446434,56138,0,0.8671875,-2.87109375,-1.001953125,-3.873046875,0.0,0.0,0.0
70447685,56139,0,1.044921875,-4.0,-2.01953125,-6.01953125,0.0,0.0,0.0
70448936,56140,0,1.05859375,-4.0,-2.36328125,-6.36328125,0.0,0.0,0.0
70450186,56141,0,-0.51953125,-4.0,-4.0,-8.0,0.0,0.0,0.0
70451437,56142,0,2.033203125,-4.0,-3.240234375,-7.240234375,0.0,0.0,0.0
70452687,56143,0,0.205078125,1.658203125,-2.15234375,-0.494140625,0.0,0.0,0.0
70453937,56144,0,1.53515625,3.998046875,0.375,4.373046875,0.0,0.0,0.0
70455188,56145,0,1.2734375,3.998046875,1.83984375,5.837890625,0.0,0.0,0.0
70456440,56146,0,1.71875,3.998046875,3.12890625,7.126953125,0.0,0.0,0.0
70457690,56147,0,0.76171875,3.998046875,3.998046875,7.99609375,0.0,0.0,0.0
70458942,56148,0,1.361328125,3.998046875,3.71484375,7.712890625,0.0,0.0,0.0
70460193,56149,0,1.166015625,3.998046875,2.34765625,6.345703125,0.0,0.0,0.0
70461445,56150,0,0.921875,3.279296875,1.314453125,4.59375,0.0,0.0,0.0
70462695,56151,0,1.01171875,-0.0625,-0.125,-0.1875,0.0,0.0,0.0
70463947,56152,0,1.22265625,-2.95703125,-1.41796875,-4.375,0.0,0.0,0.0
70465198,56153,0,1.041015625,-4.0,-1.908203125,-5.908203125,0.0,0.0,0.0
70466450,56154,0,0.6484375,-4.0,-2.0546875,-6.0546875,0.0,0.0,0.0
70467700,56155,0,0.875,-4.0,-2.146484375,-6.146484375,0.0,0.0,0.0
70468952,56156,0,0.78515625,-4.0,-1.69921875,-5.69921875,0.0,0.0,0.0
70470203,56157,0,0.69140625,-2.541015625,-1.044921875,-3.5859375,0.0,0.0,0.0
70471454,56158,0,1.041015625,-0.544921875,-0.482421875,-1.02734375,0.0,0.0,0.0
70472705,56159,0,1.287109375,1.24609375,0.166015625,1.412109375,0.0,0.0,0.0
70473957,56160,0,1.13671875,2.615234375,0.830078125,3.4453125,0.0,0.0,0.0
70475207,56161,0,1.017578125,3.21484375,1.11328125,4.328125,0.0,0.0,0.0
70476459,56162,0,1.224609375,3.30859375,1.263671875,4.572265625,0.0,0.0,0.0
70477709,56163,0,0.931640625,2.845703125,0.900390625,3.74609375,0.0,0.0,0.0
70478959,56164,0,0.837890625,0.7890625,0.310546875,1.099609375,0.0,0.0,0.0
70480209,56165,0,1.134765625,-0.3203125,-0.1015625,-0.421875,0.0,0.0,0.0
70481459,56166,0,0.955078125,-1.232421875,-0.42578125,-1.658203125,0.0,0.0,0.0
70482711,56167,0,1.123046875,-1.8125,-0.716796875,-2.529296875,0.0,0.0,0.0
70483961,56168,0,1.0078125,-1.984375,-0.75,-2.734375,0.0,0.0,0.0
70485213,56169,0,0.830078125,-1.79296875,-0.6015625,-2.39453125,0.0,0.0,0.0
70486464,56170,0,0.888671875,-1.302734375,-0.453125,-1.755859375,0.0,0.0,0.0
70487715,56171,0,1.025390625,-0.64453125,-0.283203125,-0.927734375,0.0,0.0,0.0
70488966,56172,0,0.900390625,0.025390625,0.02734375,0.052734375,0.0,0.0,0.0
70490216,56173,0,1.046875,0.60546875,0.1953125,0.80078125,0.0,0.0,0.0
70491467,56174,0,1.189453125,0.98828125,0.298828125,1.287109375,0.0,0.0,0.0
70492718,56175,0,1.041015625,1.142578125,0.443359375,1.5859375,0.0,0.0,0.0
70493968,56176,0,1.005859375,1.0859375,0.466796875,1.552734375,0.0,0.0,0.0
70495219,56177,0,1.048828125,0.828125,0.361328125,1.189453125,0.0,0.0,0.0
70496470,56178,0,0.958984375,0.45703125,0.248046875,0.705078125,0.0,0.0,0.0
70497721,56179,0,0.892578125,0.044921875,0.1171875,0.162109375,0.0,0.0,0.0
70498971,56180,0,1.033203125,-0.314453125,-0.099609375,-0.4140625,0.0,0.0,0.0
70500223,56181,0,1.078125,-0.57421875,-0.23046875,-0.8046875,0.0,0.0,0.0
70501473,56182,0,0.9921875,-0.6875,-0.220703125,-0.908203125,0.0,0.0,0.0
70502723,56183,0,1.044921875,-0.658203125,-0.23828125,-0.896484375,0.0,0.0,0.0
70503975,56184,0,1.01171875,-0.5234375,-0.18359375,-0.70703125,0.0,0.0,0.0
70505226,56185,0,0.90234375,-0.294921875,-0.0546875,-0.349609375,0.0,0.0,0.0
70506476,56186,0,0.94140625,-0.05078125,0.017578125,-0.033203125,0.0,0.0,0.0
70507728,56187,0,1.02734375,0.1640625,0.06640625,0.23046875,0.0,0.0,0.0
70508979,56188,0,1.03125,0.326171875,0.134765625,0.4609375,0.0,0.0,0.0
70510229,56189,0,1.044921875,0.404296875,0.169921875,0.57421875,0.0,0.0,0.0
70511481,56190,0,1.103515625,0.40234375,0.140625,0.54296875,0.0,0.0,0.0
70512731,56191,0,1.03125,0.326171875,0.150390625,0.4765625,0.0,0.0,0.0
70513981,56192,0,0.9375,0.197265625,0.142578125,0.33984375,0.0,0.0,0.0
70515232,56193,0,0.9765625,0.046875,0.072265625,0.119140625,0.0,0.0,0.0
70516483,56194,0,0.98046875,-0.0859375,0.0078125,-0.078125,0.0,0.0,0.0
70517734,56195,0,0.970703125,-0.177734375,-0.033203125,-0.2109375,0.0,0.0,0.0
70518986,56196,0,1.03125,-0.236328125,-0.076171875,-0.3125,0.0,0.0,0.0
70520236,56197,0,1.07421875,-0.2421875,-0.1015625,-0.34375,0.0,0.0,0.0
70521486,56198,0,1.0078125,-0.1953125,-0.060546875,-0.255859375,0.0,0.0,0.0
70522737,56199,0,0.978515625,-0.119140625,-0.01171875,-0.130859375,0.0,0.0,0.0
70523987,56200,0,1.00390625,-0.03515625,0.013671875,-0.021484375,0.0,0.0,0.0
70525238,56201,0,0.962890625,0.041015625,0.06640625,0.107421875,0.0,0.0,0.0
70526489,56202,0,0.978515625,0.09765625,0.08203125,0.1796875,0.0,0.0,0.0
70527740,56203,0,1.0390625,0.12890625,0.0625,0.19140625,0.0,0.0,0.0
70528991,56204,0,1.046875,0.12109375,0.060546875,0.181640625,0.0,0.0,0.0
70530241,56205,0,1.013671875,0.099609375,0.04296875,0.142578125,0.0,0.0,0.0
70531492,56206,0,1.029296875,0.048828125,0.03515625,0.083984375,0.0,0.0,0.0
70532744,56207,0,1.017578125,-0.04296875,0.0234375,-0.01953125,0.0,0.0,0.0
70533994,56208,0,0.953125,-0.080078125,0.017578125,-0.0625,0.0,0.0,0.0
70535245,56209,0,1.017578125,-0.1015625,-0.021484375,-0.123046875,0.0,0.0,0.0
70536496,56210,0,1.0078125,-0.107421875,-0.025390625,-0.1328125,0.0,0.0,0.0
70537747,56211,0,1.025390625,-0.095703125,-0.033203125,-0.12890625,0.0,0.0,0.0
70538998,56212,0,1.044921875,-0.083984375,-0.02734375,-0.111328125,0.0,0.0,0.0
70540249,56213,0,1.01171875,-0.056640625,-0.001953125,-0.05859375,0.0,0.0,0.0
70541499,56214,0,0.96875,-0.02734375,0.033203125,0.005859375,0.0,0.0,0.0
70542751,56215,0,0.982421875,-0.0078125,0.029296875,0.021484375,0.0,0.0,0.0
70544002,56216,0,0.98828125,0.001953125,0.029296875,0.03125,0.0,0.0,0.0
70545253,56217,0,0.98828125,0.00390625,0.03125,0.03515625,0.0,0.0,0.0
70546503,56218,0,1.037109375,0.0,0.009765625,0.009765625,0.0,0.0,0.0
70547755,56219,0,1.044921875,-0.015625,-0.005859375,-0.021484375,0.0,0.0,0.0
70549005,56220,0,1.013671875,-0.029296875,0.005859375,-0.0234375,0.0,0.0,0.0
70550256,56221,0,0.990234375,-0.04296875,0.015625,-0.02734375,0.0,0.0,0.0
70551506,56222,0,0.9921875,-0.0546875,0.00390625,-0.05078125,0.0,0.0,0.0
70552757,56223,0,0.97265625,-0.0703125,0.0078125,-0.0625,0.0,0.0,0.0
70554008,56224,0,0.98046875,-0.064453125,0.01171875,-0.052734375,0.0,0.0,0.0
70555258,56225,0,1.021484375,-0.056640625,-0.00390625,-0.060546875,0.0,0.0,0.0
70556508,56226,0,1.02734375,-0.048828125,0.0,-0.048828125,0.0,0.0,0.0
70557759,56227,0,1.0234375,-0.0390625,0.015625,-0.0234375,0.0,0.0,0.0
70559009,56228,0,1.01953125,-0.025390625,0.005859375,-0.01953125,0.0,0.0,0.0
70560259,56229,0,0.998046875,-0.025390625,0.0234375,-0.001953125,0.0,0.0,0.0
70561510,56230,0,0.974609375,-0.015625,0.029296875,0.013671875,0.0,0.0,0.0
70562762,56231,0,0.9921875,-0.01953125,0.0234375,0.00390625,0.0,0.0,0.0
70564012,56232,0,1.009765625,-0.01953125,0.01953125,0.0,0.0,0.0,0.0
70565271,56233,0,1.009765625,-0.015625,0.01953125,0.00390625,0.0,0.0,0.0
70566521,56234,0,1.01953125,-0.015625,0.015625,0.0,0.0,0.0,0.0
70567773,56235,0,1.03125,-0.015625,0.0078125,-0.0078125,0.0,0.0,0.0
70569023,56236,0,1.0078125,-0.017578125,0.017578125,0.0,0.0,0.0,0.0
70570274,56237,0,0.986328125,-0.021484375,0.03125,0.009765625,0.0,0.0,0.0
70571525,56238,0,0.994140625,-0.029296875,0.021484375,-0.0078125,0.0,0.0,0.0
70572776,56239,0,0.994140625,-0.02734375,0.0234375,-0.00390625,0.0,0.0,0.0
70574026,56240,0,0.994140625,-0.0234375,0.021484375,-0.001953125,0.0,0.0,0.0
70575276,56241,0,1.01953125,-0.015625,0.015625,0.0,0.0,0.0,0.0
70576527,56242,0,1.01953125,-0.0078125,0.013671875,0.005859375,0.0,0.0,0.0
70577778,56243,0,1.001953125,-0.01171875,0.025390625,0.013671875,0.0,0.0,0.0
70579029,56244,0,1.005859375,-0.00390625,0.0234375,0.01953125,0.0,0.0,0.0
70580280,56245,0,1.0,-0.001953125,0.025390625,0.0234375,0.0,0.0,0.0
70581531,56246,0,0.984375,-0.005859375,0.037109375,0.03125,0.0,0.0,0.0
70582783,56247,0,1.0,-0.009765625,0.03125,0.021484375,0.0,0.0,0.0
70584034,56248,0,1.01953125,-0.017578125,0.025390625,0.0078125,0.0,0.0,0.0
70585286,56249,0,1.01171875,-0.017578125,0.021484375,0.00390625,0.0,0.0,0.0
70586537,56250,0,1.005859375,-0.017578125,0.015625,-0.001953125,0.0,0.0,0.0
70587789,56251,0,1.01171875,-0.017578125,0.01953125,0.001953125,0.0,0.0,0.0
70589039,56252,0,0.984375,-0.01953125,0.025390625,0.005859375,0.0,0.0,0.0
70590289,56253,0,1.001953125,-0.021484375,0.0234375,0.001953125,0.0,0.0,0.0
70591541,56254,0,1.0078125,-0.021484375,0.015625,-0.005859375,0.0,0.0,0.0
70592792,56255,0,1.001953125,-0.017578125,0.017578125,0.0,0.0,0.0,0.0
70594044,56256,0,1.015625,-0.0234375,0.009765625,-0.013671875,0.0,0.0,0.0
70595294,56257,0,1.015625,-0.0234375,0.01953125,-0.00390625,0.0,0.0,0.0
70596544,56258,0,0.998046875,-0.025390625,0.01953125,-0.005859375,0.0,0.0,0.0
70597795,56259,0,0.994140625,-0.021484375,0.025390625,0.00390625,0.0,0.0,0.0
70599045,56260,0,0.998046875,-0.029296875,0.017578125,-0.01171875,0.0,0.0,0.0
70600295,56261,0,1.001953125,-0.03125,0.015625,-0.015625,0.0,0.0,0.0
70601546,56262,0,1.00390625,-0.03515625,0.013671875,-0.021484375,0.0,0.0,0.0
70602797,56263,0,1.0234375,-0.033203125,0.0078125,-0.025390625,0.0,0.0,0.0
70604048,56264,0,1.00390625,-0.03515625,0.013671875,-0.021484375,0.0,0.0,0.0
70605299,56265,0,1.005859375,-0.03515625,0.013671875,-0.021484375,0.0,0.0,0.0
70606550,56266,0,1.0078125,-0.03125,0.013671875,-0.017578125,0.0,0.0,0.0
70607800,56267,0,0.99609375,-0.029296875,0.01171875,-0.017578125,0.0,0.0,0.0
70609052,56268,0,0.98828125,-0.03125,0.01953125,-0.01171875,0.0,0.0,0.0
70610303,56269,0,1.00390625,-0.0390625,0.001953125,-0.037109375,0.0,0.0,0.0
70611554,56270,0,1.021484375,-0.03515625,0.005859375,-0.029296875,0.0,0.0,0.0
70612805,56271,0,1.015625,-0.0390625,0.001953125,-0.037109375,0.0,0.0,0.0
70614057,56272,0,1.0078125,-0.037109375,0.005859375,-0.03125,0.0,0.0,0.0
70615308,56273,0,1.0078125,-0.037109375,0.0,-0.037109375,0.0,0.0,0.0
70616560,56274,0,0.998046875,-0.0390625,0.005859375,-0.033203125,0.0,0.0,0.0
70617811,56275,0,0.99609375,-0.037109375,0.015625,-0.021484375,0.0,0.0,0.0
70619063,56276,0,0.998046875,-0.0390625,0.00390625,-0.03515625,0.0,0.0,0.0
70620314,56277,0,1.00390625,-0.033203125,0.0078125,-0.025390625,0.0,0.0,0.0
70621565,56278,0,1.009765625,-0.03515625,0.005859375,-0.029296875,0.0,0.0,0.0
70622816,56279,0,1.0078125,-0.03125,0.00390625,-0.02734375,0.0,0.0,0.0
70624066,56280,0,1.005859375,-0.03125,0.01171875,-0.01953125,0.0,0.0,0.0
70625318,56281,0,1.0,-0.03515625,0.009765625,-0.025390625,0.0,0.0,0.0
70626569,56282,0,1.0,-0.029296875,0.013671875,-0.015625,0.0,0.0,0.0
70627819,56283,0,1.00390625,-0.029296875,0.015625,-0.013671875,0.0,0.0,0.0
70629070,56284,0,1.001953125,-0.029296875,0.013671875,-0.015625,0.0,0.0,0.0
70630321,56285,0,1.00390625,-0.033203125,0.009765625,-0.0234375,0.0,0.0,0.0
70631572,56286,0,1.009765625,-0.02734375,0.01171875,-0.015625,0.0,0.0,0.0
70632823,56287,0,1.00390625,-0.01953125,0.017578125,-0.001953125,0.0,0.0,0.0
70634074,56288,0,0.998046875,-0.0234375,0.0078125,-0.015625,0.0,0.0,0.0
70635325,56289,0,1.001953125,-0.021484375,0.017578125,-0.00390625,0.0,0.0,0.0
70636575,56290,0,1.001953125,-0.021484375,0.015625,-0.005859375,0.0,0.0,0.0
70637825,56291,0,0.998046875,-0.021484375,0.0234375,0.001953125,0.0,0.0,0.0
70639076,56292,0,1.0,-0.015625,0.01953125,0.00390625,0.0,0.0,0.0
70640326,56293,0,1.01171875,-0.015625,0.013671875,-0.001953125,0.0,0.0,0.0
70641577,56294,0,1.005859375,-0.01953125,0.01953125,0.0,0.0,0.0,0.0
70642828,56295,0,1.00390625,-0.01171875,0.021484375,0.009765625,0.0,0.0,0.0
70644078,56296,0,0.994140625,-0.015625,0.01953125,0.00390625,0.0,0.0,0.0
70645329,56297,0,0.998046875,-0.01953125,0.015625,-0.00390625,0.0,0.0,0.0
70646581,56298,0,1.001953125,-0.017578125,0.017578125,0.0,0.0,0.0,0.0
70647833,56299,0,0.998046875,-0.015625,0.025390625,0.009765625,0.0,0.0,0.0
70649083,56300,0,1.00390625,-0.015625,0.0234375,0.0078125,0.0,0.0,0.0
70650333,56301,0,1.0078125,-0.017578125,0.0234375,0.005859375,0.0,0.0,0.0
70651584,56302,0,1.00390625,-0.013671875,0.021484375,0.0078125,0.0,0.0,0.0
70652835,56303,0,1.00390625,-0.013671875,0.021484375,0.0078125,0.0,0.0,0.0
70654085,56304,0,1.005859375,-0.01953125,0.0234375,0.00390625,0.0,0.0,0.0
70655336,56305,0,1.001953125,-0.017578125,0.017578125,0.0,0.0,0.0,0.0
70656587,56306,0,1.0078125,-0.021484375,0.025390625,0.00390625,0.0,0.0,0.0
70657838,56307,0,1.001953125,-0.0234375,0.01953125,-0.00390625,0.0,0.0,0.0
70659090,56308,0,1.00390625,-0.021484375,0.01953125,-0.001953125,0.0,0.0,0.0
70660341,56309,0,1.0,-0.01953125,0.01953125,0.0,0.0,0.0,0.0
70661592,56310,0,1.0,-0.021484375,0.0234375,0.001953125,0.0,0.0,0.0
70662844,56311,0,1.017578125,-0.02734375,0.01953125,-0.0078125,0.0,0.0,0.0
70664095,56312,0,1.0078125,-0.033203125,0.025390625,-0.0078125,0.0,0.0,0.0
70665346,56313,0,0.998046875,-0.025390625,0.01953125,-0.005859375,0.0,0.0,0.0
70666597,56314,0,1.001953125,-0.021484375,0.01953125,-0.001953125,0.0,0.0,0.0
70667849,56315,0,1.001953125,-0.03125,0.017578125,-0.013671875,0.0,0.0,0.0
70669099,56316,0,1.0078125,-0.033203125,0.01953125,-0.013671875,0.0,0.0,0.0
70670351,56317,0,1.001953125,-0.033203125,0.015625,-0.017578125,0.0,0.0,0.0
70671602,56318,0,1.00390625,-0.03125,0.021484375,-0.009765625,0.0,0.0,0.0
70672854,56319,0,1.009765625,-0.033203125,0.013671875,-0.01953125,0.0,0.0,0.0
70674104,56320,0,0.99609375,-0.033203125,0.013671875,-0.01953125,0.0,0.0,0.0
70675354,56321,0,1.00390625,-0.03515625,0.013671875,-0.021484375,0.0,0.0,0.0
70676605,56322,0,0.99609375,-0.037109375,0.015625,-0.021484375,0.0,0.0,0.0
70677855,56323,0,1.0,-0.0390625,0.017578125,-0.021484375,0.0,0.0,0.0
70679107,56324,0,1.00390625,-0.033203125,0.013671875,-0.01953125,0.0,0.0,0.0
70680358,56325,0,1.001953125,-0.037109375,0.017578125,-0.01953125,0.0,0.0,0.0
70681609,56326,0,1.005859375,-0.037109375,0.01171875,-0.025390625,0.0,0.0,0.0
70682859,56327,0,1.0078125,-0.037109375,0.013671875,-0.0234375,0.0,0.0,0.0
70684111,56328,0,1.005859375,-0.037109375,0.009765625,-0.02734375,0.0,0.0,0.0
70685362,56329,0,1.001953125,-0.037109375,0.0078125,-0.029296875,0.0,0.0,0.0
70686613,56330,0,1.009765625,-0.037109375,0.0078125,-0.029296875,0.0,0.0,0.0
70687865,56331,0,1.009765625,-0.03125,0.015625,-0.015625,0.0,0.0,0.0
70689115,56332,0,1.00390625,-0.033203125,0.013671875,-0.01953125,0.0,0.0,0.0
70690365,56333,0,1.001953125,-0.037109375,0.01953125,-0.017578125,0.0,0.0,0.0
70691617,56334,0,1.009765625,-0.033203125,0.013671875,-0.01953125,0.0,0.0,0.0
70692867,56335,0,0.994140625,-0.033203125,0.0078125,-0.025390625,0.0,0.0,0.0
70694118,56336,0,0.990234375,-0.029296875,0.013671875,-0.015625,0.0,0.0,0.0
70695369,56337,0,1.005859375,-0.029296875,0.01171875,-0.017578125,0.0,0.0,0.0
70696620,56338,0,0.994140625,-0.03125,0.017578125,-0.013671875,0.0,0.0,0.0
70697871,56339,0,1.001953125,-0.03125,0.009765625,-0.021484375,0.0,0.0,0.0
70699123,56340,0,1.0078125,-0.02734375,0.009765625,-0.017578125,0.0,0.0,0.0
70700374,56341,0,1.00390625,-0.02734375,0.013671875,-0.013671875,0.0,0.0,0.0
70701624,56342,0,1.009765625,-0.025390625,0.017578125,-0.0078125,0.0,0.0,0.0
70702875,56343,0,1.005859375,-0.0234375,0.021484375,-0.001953125,0.0,0.0,0.0
70704125,56344,0,1.00390625,-0.025390625,0.01953125,-0.005859375,0.0,0.0,0.0
70705375,56345,0,1.00390625,-0.021484375,0.009765625,-0.01171875,0.0,0.0,0.0
70706626,56346,0,1.009765625,-0.0234375,0.017578125,-0.005859375,0.0,0.0,0.0
70707877,56347,0,1.0078125,-0.021484375,0.021484375,0.0,0.0,0.0,0.0
70709129,56348,0,1.005859375,-0.01953125,0.01953125,0.0,0.0,0.0,0.0
70710380,56349,0,1.0078125,-0.021484375,0.017578125,-0.00390625,0.0,0.0,0.0
70711630,56350,0,1.00390625,-0.013671875,0.01171875,-0.001953125,0.0,0.0,0.0
70712881,56351,0,1.013671875,-0.017578125,0.021484375,0.00390625,0.0,0.0,0.0
70714133,56352,0,1.0,-0.017578125,0.01953125,0.001953125,0.0,0.0,0.0
70715384,56353,0,1.00390625,-0.017578125,0.015625,-0.001953125,0.0,0.0,0.0
70716634,56354,0,0.998046875,-0.017578125,0.021484375,0.00390625,0.0,0.0,0.0
70717886,56355,0,1.001953125,-0.017578125,0.021484375,0.00390625,0.0,0.0,0.0
70719136,56356,0,1.001953125,-0.021484375,0.013671875,-0.0078125,0.0,0.0,0.0
70720386,56357,0,1.001953125,-0.01953125,0.015625,-0.00390625,0.0,0.0,0.0
70721638,56358,0,1.0,-0.01953125,0.01953125,0.0,0.0,0.0,0.0
70722888,56359,0,1.005859375,-0.017578125,0.017578125,0.0,0.0,0.0,0.0
70724139,56360,0,1.00390625,-0.01953125,0.01953125,0.0,0.0,0.0,0.0
70725391,56361,0,1.0,-0.017578125,0.015625,-0.001953125,0.0,0.0,0.0
70726641,56362,0,1.0,-0.025390625,0.021484375,-0.00390625,0.0,0.0,0.0
70727892,56363,0,1.005859375,-0.0234375,0.025390625,0.001953125,0.0,0.0,0.0
70729142,56364,0,0.998046875,-0.021484375,0.01171875,-0.009765625,0.0,0.0,0.0
70730393,56365,0,1.001953125,-0.021484375,0.021484375,0.0,0.0,0.0,0.0
70731645,56366,0,1.001953125,-0.029296875,0.01953125,-0.009765625,0.0,0.0,0.0
70732895,56367,0,1.00390625,-0.0234375,0.015625,-0.0078125,0.0,0.0,0.0
70734147,56368,0,1.005859375,-0.029296875,0.0234375,-0.005859375,0.0,0.0,0.0
70735397,56369,0,1.009765625,-0.025390625,0.013671875,-0.01171875,0.0,0.0,0.0
70736649,56370,0,1.0,-0.02734375,0.017578125,-0.009765625,0.0,0.0,0.0
70737899,56371,0,1.0,-0.0234375,0.009765625,-0.013671875,0.0,0.0,0.0
70739149,56372,0,1.00390625,-0.033203125,0.01171875,-0.021484375,0.0,0.0,0.0
70740399,56373,0,0.998046875,-0.025390625,0.009765625,-0.015625,0.0,0.0,0.0
70741650,56374,0,1.005859375,-0.02734375,0.017578125,-0.009765625,0.0,0.0,0.0
70742902,56375,0,1.001953125,-0.02734375,0.01953125,-0.0078125,0.0,0.0,0.0
70744153,56376,0,0.998046875,-0.029296875,0.01171875,-0.017578125,0.0,0.0,0.0
70745404,56377,0,0.99609375,-0.029296875,0.013671875,-0.015625,0.0,0.0,0.0
70746654,56378,0,0.994140625,-0.033203125,0.01171875,-0.021484375,0.0,0.0,0.0
70747904,56379,0,1.00390625,-0.03515625,0.017578125,-0.017578125,0.0,0.0,0.0
70749155,56380,0,1.0,-0.03515625,0.013671875,-0.021484375,0.0,0.0,0.0
70750407,56381,0,1.0078125,-0.03515625,0.013671875,-0.021484375,0.0,0.0,0.0
70751657,56382,0,1.00390625,-0.03515625,0.009765625,-0.025390625,0.0,0.0,0.0
70752909,56383,0,0.998046875,-0.03125,0.009765625,-0.021484375,0.0,0.0,0.0
70754159,56384,0,1.005859375,-0.029296875,0.017578125,-0.01171875,0.0,0.0,0.0
70755409,56385,0,1.005859375,-0.03515625,0.01953125,-0.015625,0.0,0.0,0.0
70756661,56386,0,0.99609375,-0.03125,0.021484375,-0.009765625,0.0,0.0,0.0
70757911,56387,0,1.00390625,-0.029296875,0.017578125,-0.01171875,0.0,0.0,0.0
70759161,56388,0,0.998046875,-0.033203125,0.015625,-0.017578125,0.0,0.0,0.0
70760411,56389,0,1.001953125,-0.029296875,0.015625,-0.013671875,0.0,0.0,0.0
70761663,56390,0,1.0,-0.03515625,0.013671875,-0.021484375,0.0,0.0,0.0
70762913,56391,0,1.0078125,-0.029296875,0.017578125,-0.01171875,0.0,0.0,0.0
70764164,56392,0,1.00390625,-0.02734375,0.015625,-0.01171875,0.0,0.0,0.0
70765415,56393,0,1.0,-0.02734375,0.01953125,-0.0078125,0.0,0.0,0.0
70766666,56394,0,1.001953125,-0.03125,0.01953125,-0.01171875,0.0,0.0,0.0
70767916,56395,0,1.013671875,-0.0234375,0.009765625,-0.013671875,0.0,0.0,0.0
70769167,56396,0,1.005859375,-0.029296875,0.01171875,-0.017578125,0.0,0.0,0.0
70770417,56397,0,1.0078125,-0.0234375,0.01171875,-0.01171875,0.0,0.0,0.0
70771668,56398,0,1.009765625,-0.025390625,0.017578125,-0.0078125,0.0,0.0,0.0
70772920,56399,0,0.990234375,-0.029296875,0.0078125,-0.021484375,0.0,0.0,0.0
70774171,56400,0,1.009765625,-0.025390625,0.0078125,-0.017578125,0.0,0.0,0.0
70775421,56401,0,0.98828125,-0.01953125,0.01953125,0.0,0.0,0.0,0.0
70776672,56402,0,1.0,-0.021484375,0.017578125,-0.00390625,0.0,0.0,0.0
70777924,56403,0,1.005859375,-0.0234375,0.017578125,-0.005859375,0.0,0.0,0.0
70779174,56404,0,1.005859375,-0.021484375,0.021484375,0.0,0.0,0.0,0.0
70780425,56405,0,1.0078125,-0.01953125,0.009765625,-0.009765625,0.0,0.0,0.0
70781677,56406,0,1.00390625,-0.021484375,0.017578125,-0.00390625,0.0,0.0,0.0
70782927,56407,0,1.00390625,-0.01953125,0.01953125,0.0,0.0,0.0,0.0
70784177,56408,0,1.001953125,-0.021484375,0.009765625,-0.01171875,0.0,0.0,0.0
70785429,56409,0,1.00390625,-0.01953125,0.017578125,-0.001953125,0.0,0.0,0.0
70786679,56410,0,1.00390625,-0.021484375,0.01953125,-0.001953125,0.0,0.0,0.0
70787931,56411,0,1.00390625,-0.0234375,0.017578125,-0.005859375,0.0,0.0,0.0
70789181,56412,0,1.00390625,-0.0234375,0.021484375,-0.001953125,0.0,0.0,0.0
70790431,56413,0,1.00390625,-0.01953125,0.01953125,0.0,0.0,0.0,0.0
70791683,56414,0,1.0078125,-0.025390625,0.013671875,-0.01171875,0.0,0.0,0.0
70792933,56415,0,1.009765625,-0.01953125,0.013671875,-0.005859375,0.0,0.0,0.0
70794183,56416,0,1.0078125,-0.02734375,0.005859375,-0.021484375,0.0,0.0,0.0
70795434,56417,0,1.01171875,-0.021484375,0.015625,-0.005859375,0.0,0.0,0.0
70796685,56418,0,1.0,-0.025390625,0.013671875,-0.01171875,0.0,0.0,0.0
70797936,56419,0,1.009765625,-0.029296875,0.01953125,-0.009765625,0.0,0.0,0.0
70799186,56420,0,1.001953125,-0.025390625,0.025390625,0.0,0.0,0.0,0.0
70800437,56421,0,1.0078125,-0.02734375,0.015625,-0.01171875,0.0,0.0,0.0
70801687,56422,0,1.0,-0.02734375,0.01953125,-0.0078125,0.0,0.0,0.0
70802937,56423,0,1.0,-0.029296875,0.017578125,-0.01171875,0.0,0.0,0.0
70804188,56424,0,1.009765625,-0.029296875,0.01171875,-0.017578125,0.0,0.0,0.0
70805440,56425,0,1.00390625,-0.029296875,0.01171875,-0.017578125,0.0,0.0,0.0
70806690,56426,0,1.00390625,-0.02734375,0.017578125,-0.009765625,0.0,0.0,0.0
70807942,56427,0,1.005859375,-0.029296875,0.015625,-0.013671875,0.0,0.0,0.0
70809193,56428,0,1.001953125,-0.025390625,0.01171875,-0.013671875,0.0,0.0,0.0
70810445,56429,0,1.001953125,-0.03125,0.0078125,-0.0234375,0.0,0.0,0.0
70811695,56430,0,1.001953125,-0.03125,0.015625,-0.015625,0.0,0.0,0.0
70812947,56431,0,1.0078125,-0.029296875,0.017578125,-0.01171875,0.0,0.0,0.0
70814198,56432,0,1.0078125,-0.03125,0.0078125,-0.0234375,0.0,0.0,0.0
70815450,56433,0,1.005859375,-0.03125,0.01953125,-0.01171875,0.0,0.0,0.0
70816700,56434,0,0.998046875,-0.037109375,0.013671875,-0.0234375,0.0,0.0,0.0
70817952,56435,0,1.0078125,-0.033203125,0.01171875,-0.021484375,0.0,0.0,0.0
70819203,56436,0,1.0078125,-0.02734375,0.01953125,-0.0078125,0.0,0.0,0.0
70820454,56437,0,1.0078125,-0.029296875,0.01953125,-0.009765625,0.0,0.0,0.0
70821705,56438,0,1.017578125,-0.037109375,0.013671875,-0.0234375,0.0,0.0,0.0
70822957,56439,0,0.998046875,-0.03515625,0.017578125,-0.017578125,0.0,0.0,0.0
70824207,56440,0,1.013671875,-0.033203125,0.017578125,-0.015625,0.0,0.0,0.0
70825459,56441,0,1.001953125,-0.03125,0.029296875,-0.001953125,0.0,0.0,0.0
70826709,56442,0,1.001953125,-0.033203125,0.01171875,-0.021484375,0.0,0.0,0.0
70827959,56443,0,1.00390625,-0.033203125,0.013671875,-0.01953125,0.0,0.0,0.0
70829209,56444,0,1.005859375,-0.03125,0.017578125,-0.013671875,0.0,0.0,0.0
70830459,56445,0,1.005859375,-0.029296875,0.017578125,-0.01171875,0.0,0.0,0.0
70831711,56446,0,1.009765625,-0.02734375,0.01953125,-0.0078125,0.0,0.0,0.0
70832961,56447,0,1.0078125,-0.02734375,0.017578125,-0.009765625,0.0,0.0,0.0
70834213,56448,0,1.001953125,-0.03125,0.01953125,-0.01171875,0.0,0.0,0.0
70835464,56449,0,1.00390625,-0.02734375,0.015625,-0.01171875,0.0,0.0,0.0
70836715,56450,0,1.001953125,-0.03515625,0.013671875,-0.021484375,0.0,0.0,0.0
70837966,56451,0,1.001953125,-0.02734375,0.015625,-0.01171875,0.0,0.0,0.0
70839216,56452,0,0.994140625,-0.021484375,0.01953125,-0.001953125,0.0,0.0,0.0
70840467,56453,0,1.00390625,-0.029296875,0.01953125,-0.009765625,0.0,0.0,0.0
70841718,56454,0,1.005859375,-0.025390625,0.01953125,-0.005859375,0.0,0.0,0.0
70842968,56455,0,1.009765625,-0.0234375,0.015625,-0.0078125,0.0,0.0,0.0
70844219,56456,0,1.00390625,-0.0234375,0.021484375,-0.001953125,0.0,0.0,0.0
70845470,56457,0,1.0,-0.0234375,0.021484375,-0.001953125,0.0,0.0,0.0
70846721,56458,0,1.009765625,-0.021484375,0.017578125,-0.00390625,0.0,0.0,0.0
70847971,56459,0,1.0,-0.0234375,0.01953125,-0.00390625,0.0,0.0,0.0
70849223,56460,0,0.994140625,-0.021484375,0.01953125,-0.001953125,0.0,0.0,0.0
70850473,56461,0,0.998046875,-0.01953125,0.013671875,-0.005859375,0.0,0.0,0.0
70851723,56462,0,1.0078125,-0.01953125,0.013671875,-0.005859375,0.0,0.0,0.0
70852975,56463,0,1.0078125,-0.021484375,0.013671875,-0.0078125,0.0,0.0,0.0
70854226,56464,0,1.009765625,-0.01953125,0.01953125,0.0,0.0,0.0,0.0
70855476,56465,0,1.009765625,-0.01953125,0.01953125,0.0,0.0,0.0,0.0
70856728,56466,0,0.99609375,-0.021484375,0.013671875,-0.0078125,0.0,0.0,0.0
70857979,56467,0,0.99609375,-0.017578125,0.013671875,-0.00390625,0.0,0.0,0.0
70859229,56468,0,1.001953125,-0.0234375,0.015625,-0.0078125,0.0,0.0,0.0
70860481,56469,0,1.0,-0.021484375,0.01953125,-0.001953125,0.0,0.0,0.0
70861731,56470,0,1.005859375,-0.021484375,0.015625,-0.005859375,0.0,0.0,0.0
70862981,56471,0,1.001953125,-0.0234375,0.01953125,-0.00390625,0.0,0.0,0.0
70864232,56472,0,1.00390625,-0.025390625,0.01171875,-0.013671875,0.0,0.0,0.0
70865483,56473,0,1.005859375,-0.01953125,0.015625,-0.00390625,0.0,0.0,0.0
70866734,56474,0,1.00390625,-0.0234375,0.01171875,-0.01171875,0.0,0.0,0.0
70867986,56475,0,1.00390625,-0.01953125,0.015625,-0.00390625,0.0,0.0,0.0
70869236,56476,0,0.998046875,-0.021484375,0.015625,-0.005859375,0.0,0.0,0.0
70870486,56477,0,0.998046875,-0.0234375,0.009765625,-0.013671875,0.0,0.0,0.0
70871737,56478,0,1.0,-0.0234375,0.01171875,-0.01171875,0.0,0.0,0.0
70872987,56479,0,0.998046875,-0.025390625,0.017578125,-0.0078125,0.0,0.0,0.0
70874238,56480,0,1.0,-0.033203125,0.013671875,-0.01953125,0.0,0.0,0.0
70875489,56481,0,1.00390625,-0.03515625,0.009765625,-0.025390625,0.0,0.0,0.0
70876740,56482,0,1.0078125,-0.03515625,0.013671875,-0.021484375,0.0,0.0,0.0
70877991,56483,0,1.009765625,-0.02734375,0.005859375,-0.021484375,0.0,0.0,0.0
70879241,56484,0,1.00390625,-0.033203125,0.015625,-0.017578125,0.0,0.0,0.0
70880492,56485,0,1.005859375,-0.03125,0.015625,-0.015625,0.0,0.0,0.0
70881744,56486,0,1.005859375,-0.033203125,0.009765625,-0.0234375,0.0,0.0,0.0
70882994,56487,0,1.001953125,-0.029296875,0.017578125,-0.01171875,0.0,0.0,0.0
70884245,56488,0,1.0,-0.03125,0.021484375,-0.009765625,0.0,0.0,0.0
70885496,56489,0,1.0078125,-0.033203125,0.013671875,-0.01953125,0.0,0.0,0.0
70886747,56490,0,1.0078125,-0.033203125,0.021484375,-0.01171875,0.0,0.0,0.0
70887998,56491,0,1.005859375,-0.02734375,0.015625,-0.01171875,0.0,0.0,0.0
70889249,56492,0,1.0,-0.03125,0.013671875,-0.017578125,0.0,0.0,0.0
70890499,56493,0,1.00390625,-0.03125,0.013671875,-0.017578125,0.0,0.0,0.0
70891751,56494,0,1.005859375,-0.03515625,0.015625,-0.01953125,0.0,0.0,0.0
70893002,56495,0,0.998046875,-0.033203125,0.017578125,-0.015625,0.0,0.0,0.0
70894253,56496,0,1.005859375,-0.02734375,0.015625,-0.01171875,0.0,0.0,0.0
70895503,56497,0,0.998046875,-0.03515625,0.015625,-0.01953125,0.0,0.0,0.0
70896755,56498,0,1.005859375,-0.029296875,0.015625,-0.013671875,0.0,0.0,0.0
70898005,56499,0,1.00390625,-0.033203125,0.01953125,-0.013671875,0.0,0.0,0.0
70899256,56500,0,1.00390625,-0.02734375,0.005859375,-0.021484375,0.0,0.0,0.0
70900506,56501,0,1.001953125,-0.02734375,0.01953125,-0.0078125,0.0,0.0,0.0
70901757,56502,0,1.00390625,-0.03125,0.015625,-0.015625,0.0,0.0,0.0
70903008,56503,0,1.001953125,-0.03125,0.013671875,-0.017578125,0.0,0.0,0.0
70904258,56504,0,1.009765625,-0.029296875,0.013671875,-0.015625,0.0,0.0,0.0
70905508,56505,0,0.998046875,-0.025390625,0.0078125,-0.017578125,0.0,0.0,0.0
70906759,56506,0,1.0,-0.0234375,0.01953125,-0.00390625,0.0,0.0,0.0
70908009,56507,0,1.001953125,-0.029296875,0.015625,-0.013671875,0.0,0.0,0.0
70909259,56508,0,0.99609375,-0.02734375,0.015625,-0.01171875,0.0,0.0,0.0
70910510,56509,0,1.0078125,-0.0234375,0.01171875,-0.01171875,0.0,0.0,0.0
70911762,56510,0,0.998046875,-0.0234375,0.021484375,-0.001953125,0.0,0.0,0.0
70913012,56511,0,1.00390625,-0.021484375,0.021484375,0.0,0.0,0.0,0.0
70914271,56512,0,1.0078125,-0.025390625,0.01953125,-0.005859375,0.0,0.0,0.0
70915521,56513,0,1.0078125,-0.029296875,0.021484375,-0.0078125,0.0,0.0,0.0
70916773,56514,0,1.00390625,-0.021484375,0.017578125,-0.00390625,0.0,0.0,0.0
70918023,56515,0,1.005859375,-0.021484375,0.017578125,-0.00390625,0.0,0.0,0.0
70919274,56516,0,1.00390625,-0.021484375,0.017578125,-0.00390625,0.0,0.0,0.0
70920525,56517,0,1.001953125,-0.0234375,0.021484375,-0.001953125,0.0,0.0,0.0
70921776,56518,0,1.005859375,-0.021484375,0.015625,-0.005859375,0.0,0.0,0.0
70923026,56519,0,0.998046875,-0.025390625,0.0234375,-0.001953125,0.0,0.0,0.0
70924276,56520,0,1.0,-0.02734375,0.017578125,-0.009765625,0.0,0.0,0.0
70925527,56521,0,1.005859375,-0.01953125,0.009765625,-0.009765625,0.0,0.0,0.0
70926778,56522,0,1.0078125,-0.025390625,0.01171875,-0.013671875,0.0,0.0,0.0
70928029,56523,0,0.998046875,-0.0234375,0.013671875,-0.009765625,0.0,0.0,0.0
70929280,56524,0,0.998046875,-0.021484375,0.01953125,-0.001953125,0.0,0.0,0.0
70930531,56525,0,1.001953125,-0.03125,0.01953125,-0.01171875,0.0,0.0,0.0
70931783,56526,0,1.001953125,-0.02734375,0.021484375,-0.005859375,0.0,0.0,0.0
70933034,56527,0,1.0078125,-0.0234375,0.015625,-0.0078125,0.0,0.0,0.0
70934286,56528,0,1.0078125,-0.0234375,0.01953125,-0.00390625,0.0,0.0,0.0
70935537,56529,0,0.998046875,-0.025390625,0.01953125,-0.005859375,0.0,0.0,0.0
70936789,56530,0,1.0078125,-0.0234375,0.017578125,-0.005859375,0.0,0.0,0.0
70938039,56531,0,1.00390625,-0.029296875,0.013671875,-0.015625,0.0,0.0,0.0
70939289,56532,0,0.99609375,-0.029296875,0.017578125,-0.01171875,0.0,0.0,0.0
70940541,56533,0,1.00390625,-0.021484375,0.01953125,-0.001953125,0.0,0.0,0.0
70941792,56534,0,1.005859375,-0.025390625,0.009765625,-0.015625,0.0,0.0,0.0
70943044,56535,0,1.0078125,-0.029296875,0.013671875,-0.015625,0.0,0.0,0.0
70944294,56536,0,1.005859375,-0.029296875,0.009765625,-0.01953125,0.0,0.0,0.0
70945544,56537,0,1.00390625,-0.029296875,0.01171875,-0.017578125,0.0,0.0,0.0
70946795,56538,0,1.00390625,-0.029296875,0.017578125,-0.01171875,0.0,0.0,0.0
70948045,56539,0,1.001953125,-0.033203125,0.015625,-0.017578125,0.0,0.0,0.0
70949295,56540,0,0.998046875,-0.03125,0.021484375,-0.009765625,0.0,0.0,0.0
70950546,56541,0,1.005859375,-0.029296875,0.009765625,-0.01953125,0.0,0.0,0.0
70951797,56542,0,1.005859375,-0.03125,0.009765625,-0.021484375,0.0,0.0,0.0
70953048,56543,0,1.009765625,-0.03125,0.01953125,-0.01171875,0.0,0.0,0.0
70954299,56544,0,1.0078125,-0.025390625,0.015625,-0.009765625,0.0,0.0,0.0
70955550,56545,0,1.0078125,-0.033203125,0.021484375,-0.01171875,0.0,0.0,0.0
70956800,56546,0,1.001953125,-0.033203125,0.005859375,-0.02734375,0.0,0.0,0.0
70958052,56547,0,1.00390625,-0.02734375,0.015625,-0.01171875,0.0,0.0,0.0
70959303,56548,0,1.0078125,-0.03515625,0.017578125,-0.017578125,0.0,0.0,0.0
70960554,56549,0,0.994140625,-0.025390625,0.01953125,-0.005859375,0.0,0.0,0.0
70961805,56550,0,1.005859375,-0.029296875,0.015625,-0.013671875,0.0,0.0,0.0
70963057,56551,0,1.0,-0.03125,0.017578125,-0.013671875,0.0,0.0,0.0
70964308,56552,0,1.005859375,-0.025390625,0.01171875,-0.013671875,0.0,0.0,0.0
70965560,56553,0,1.005859375,-0.0234375,0.017578125,-0.005859375,0.0,0.0,0.0
70966811,56554,0,1.0,-0.02734375,0.01171875,-0.015625,0.0,0.0,0.0
70968063,56555,0,1.005859375,-0.02734375,0.017578125,-0.009765625,0.0,0.0,0.0
70969314,56556,0,1.00390625,-0.025390625,0.01953125,-0.005859375,0.0,0.0,0.0
70970565,56557,0,0.998046875,-0.021484375,0.01953125,-0.001953125,0.0,0.0,0.0
70971816,56558,0,1.0078125,-0.0234375,0.015625,-0.0078125,0.0,0.0,0.0
70973066,56559,0,1.00390625,-0.0234375,0.017578125,-0.005859375,0.0,0.0,0.0
70974318,56560,0,1.001953125,-0.025390625,0.009765625,-0.015625,0.0,0.0,0.0
70975569,56561,0,1.001953125,-0.0234375,0.021484375,-0.001953125,0.0,0.0,0.0
70976819,56562,0,1.005859375,-0.0234375,0.01953125,-0.00390625,0.0,0.0,0.0
70978070,56563,0,1.001953125,-0.02734375,0.017578125,-0.009765625,0.0,0.0,0.0
70979321,56564,0,1.00390625,-0.025390625,0.009765625,-0.015625,0.0,0.0,0.0
70980572,56565,0,1.001953125,-0.0234375,0.025390625,0.001953125,0.0,0.0,0.0
70981823,56566,0,1.001953125,-0.0234375,0.0234375,0.0,0.0,0.0,0.0
70983074,56567,0,1.00390625,-0.025390625,0.017578125,-0.0078125,0.0,0.0,0.0
70984325,56568,0,1.013671875,-0.021484375,0.01953125,-0.001953125,0.0,0.0,0.0
70985575,56569,0,1.00390625,-0.0234375,0.015625,-0.0078125,0.0,0.0,0.0
70986825,56570,0,1.01171875,-0.02734375,0.015625,-0.01171875,0.0,0.0,0.0
70988076,56571,0,1.001953125,-0.015625,0.029296875,0.013671875,0.0,0.0,0.0
70989326,56572,0,1.0078125,-0.017578125,0.015625,-0.001953125,0.0,0.0,0.0
70990577,56573,0,1.009765625,-0.017578125,0.01953125,0.001953125,0.0,0.0,0.0
70991828,56574,0,1.0078125,-0.0234375,0.013671875,-0.009765625,0.0,0.0,0.0
70993078,56575,0,1.0078125,-0.025390625,0.015625,-0.009765625,0.0,0.0,0.0
70994329,56576,0,1.005859375,-0.02734375,0.015625,-0.01171875,0.0,0.0,0.0
70995581,56577,0,1.0078125,-0.029296875,0.01953125,-0.009765625,0.0,0.0,0.0
70996833,56578,0,1.00390625,-0.025390625,0.0234375,-0.001953125,0.0,0.0,0.0
70998083,56579,0,1.0,-0.0234375,0.015625,-0.0078125,0.0,0.0,0.0
70999333,56580,0,1.001953125,-0.03125,0.021484375,-0.009765625,0.0,0.0,0.0
71000584,56581,0,1.0,-0.0234375,0.013671875,-0.009765625,0.0,0.0,0.0
71001835,56582,0,1.001953125,-0.02734375,0.0078125,-0.01953125,0.0,0.0,0.0
71003085,56583,0,1.0078125,-0.02734375,0.017578125,-0.009765625,0.0,0.0,0.0
71004336,56584,0,1.005859375,-0.02734375,0.021484375,-0.005859375,0.0,0.0,0.0
71005587,56585,0,1.009765625,-0.029296875,0.015625,-0.013671875,0.0,0.0,0.0
71006838,56586,0,1.009765625,-0.029296875,0.0234375,-0.005859375,0.0,0.0,0.0
71008090,56587,0,0.998046875,-0.029296875,0.013671875,-0.015625,0.0,0.0,0.0
71009341,56588,0,1.009765625,-0.025390625,0.0234375,-0.001953125,0.0,0.0,0.0
71010592,56589,0,0.99609375,-0.029296875,0.015625,-0.013671875,0.0,0.0,0.0
71011844,56590,0,1.001953125,-0.03125,0.017578125,-0.013671875,0.0,0.0,0.0
71013095,56591,0,1.001953125,-0.033203125,0.005859375,-0.02734375,0.0,0.0,0.0
71014346,56592,0,1.001953125,-0.033203125,0.0078125,-0.025390625,0.0,0.0,0.0
71015597,56593,0,1.015625,-0.029296875,0.013671875,-0.015625,0.0,0.0,0.0
71016849,56594,0,1.001953125,-0.03125,0.017578125,-0.013671875,0.0,0.0,0.0
71018099,56595,0,1.0,-0.029296875,0.01171875,-0.017578125,0.0,0.0,0.0
71019351,56596,0,1.00390625,-0.02734375,0.01171875,-0.015625,0.0,0.0,0.0
71020602,56597,0,1.00390625,-0.029296875,0.009765625,-0.01953125,0.0,0.0,0.0
71021854,56598,0,1.0,-0.029296875,0.01953125,-0.009765625,0.0,0.0,0.0
71023104,56599,0,1.00390625,-0.03125,0.009765625,-0.021484375,0.0,0.0,0.0
71024354,56600,0,1.005859375,-0.03125,0.017578125,-0.013671875,0.0,0.0,0.0
71025605,56601,0,1.001953125,-0.033203125,0.009765625,-0.0234375,0.0,0.0,0.0
71026855,56602,0,1.005859375,-0.02734375,0.015625,-0.01171875,0.0,0.0,0.0
71028107,56603,0,1.005859375,-0.029296875,0.01171875,-0.017578125,0.0,0.0,0.0
71029358,56604,0,1.0078125,-0.033203125,0.005859375,-0.02734375,0.0,0.0,0.0
71030609,56605,0,1.005859375,-0.029296875,0.013671875,-0.015625,0.0,0.0,0.0
71031859,56606,0,1.0078125,-0.03515625,0.0078125,-0.02734375,0.0,0.0,0.0
71033111,56607,0,1.001953125,-0.029296875,0.01171875,-0.017578125,0.0,0.0,0.0
71034362,56608,0,1.001953125,-0.02734375,0.009765625,-0.017578125,0.0,0.0,0.0
71035613,56609,0,0.998046875,-0.02734375,0.015625,-0.01171875,0.0,0.0,0.0
71036865,56610,0,1.013671875,-0.02734375,0.01171875,-0.015625,0.0,0.0,0.0
71038115,56611,0,1.0,-0.0234375,0.01953125,-0.00390625,0.0,0.0,0.0
71039365,56612,0,0.9921875,-0.02734375,0.015625,-0.01171875,0.0,0.0,0.0
71040617,56613,0,1.00390625,-0.021484375,0.01171875,-0.009765625,0.0,0.0,0.0
71041867,56614,0,1.001953125,-0.017578125,0.013671875,-0.00390625,0.0,0.0,0.0
71043118,56615,0,1.0078125,-0.025390625,0.017578125,-0.0078125,0.0,0.0,0.0
71044369,56616,0,0.998046875,-0.0234375,0.01953125,-0.00390625,0.0,0.0,0.0
71045620,56617,0,1.005859375,-0.02734375,0.01171875,-0.015625,0.0,0.0,0.0
71046871,56618,0,1.0078125,-0.021484375,0.021484375,0.0,0.0,0.0,0.0
71048123,56619,0,1.0,-0.0234375,0.013671875,-0.009765625,0.0,0.0,0.0
71049374,56620,0,0.99609375,-0.02734375,0.0234375,-0.00390625,0.0,0.0,0.0
71050624,56621,0,1.005859375,-0.021484375,0.021484375,0.0,0.0,0.0,0.0
71051875,56622,0,1.0078125,-0.025390625,0.01953125,-0.005859375,0.0,0.0,0.0
71053125,56623,0,1.00390625,-0.017578125,0.01953125,0.001953125,0.0,0.0,0.0
71054375,56624,0,1.009765625,-0.01953125,0.01953125,0.0,0.0,0.0,0.0
71055626,56625,0,1.0078125,-0.025390625,0.013671875,-0.01171875,0.0,0.0,0.0
71056877,56626,0,1.005859375,-0.0234375,0.01171875,-0.01171875,0.0,0.0,0.0
71058129,56627,0,1.00390625,-0.021484375,0.015625,-0.005859375,0.0,0.0,0.0
71059380,56628,0,1.005859375,-0.025390625,0.01953125,-0.005859375,0.0,0.0,0.0
71060630,56629,0,0.998046875,-0.02734375,0.017578125,-0.009765625,0.0,0.0,0.0
71061881,56630,0,1.001953125,-0.0234375,0.021484375,-0.001953125,0.0,0.0,0.0
71063133,56631,0,0.998046875,-0.025390625,0.01953125,-0.005859375,0.0,0.0,0.0
71064384,56632,0,1.013671875,-0.033203125,0.009765625,-0.0234375,0.0,0.0,0.0
71065634,56633,0,1.001953125,-0.03125,0.0078125,-0.0234375,0.0,0.0,0.0
71066886,56634,0,0.998046875,-0.02734375,0.013671875,-0.013671875,0.0,0.0,0.0
71068136,56635,0,0.99609375,-0.029296875,0.01953125,-0.009765625,0.0,0.0,0.0
71069386,56636,0,1.001953125,-0.025390625,0.017578125,-0.0078125,0.0,0.0,0.0
71070638,56637,0,1.001953125,-0.029296875,0.015625,-0.013671875,0.0,0.0,0.0
71071888,56638,0,1.0078125,-0.02734375,0.01171875,-0.015625,0.0,0.0,0.0
71073139,56639,0,1.001953125,-0.03515625,0.017578125,-0.017578125,0.0,0.0,0.0
71074391,56640,0,1.009765625,-0.025390625,0.01171875,-0.013671875,0.0,0.0,0.0
71075641,56641,0,1.0,-0.03125,0.015625,-0.015625,0.0,0.0,0.0
71076892,56642,0,1.00390625,-0.025390625,0.013671875,-0.01171875,0.0,0.0,0.0
71078142,56643,0,1.001953125,-0.03125,0.017578125,-0.013671875,0.0,0.0,0.0
71079393,56644,0,1.0078125,-0.029296875,0.015625,-0.013671875,0.0,0.0,0.0
71080645,56645,0,1.00390625,-0.03125,0.017578125,-0.013671875,0.0,0.0,0.0
71081895,56646,0,1.0078125,-0.03125,0.01171875,-0.01953125,0.0,0.0,0.0
71083147,56647,0,1.00390625,-0.029296875,0.013671875,-0.015625,0.0,0.0,0.0
71084397,56648,0,1.01171875,-0.03125,0.015625,-0.015625,0.0,0.0,0.0
71085649,56649,0,0.998046875,-0.03125,0.01953125,-0.01171875,0.0,0.0,0.0
71086899,56650,0,1.0,-0.02734375,0.01953125,-0.0078125,0.0,0.0,0.0
71088149,56651,0,1.0,-0.025390625,0.01171875,-0.013671875,0.0,0.0,0.0
71089399,56652,0,1.0078125,-0.02734375,0.017578125,-0.009765625,0.0,0.0,0.0
71090650,56653,0,1.001953125,-0.029296875,0.017578125,-0.01171875,0.0,0.0,0.0
71091902,56654,0,1.00390625,-0.025390625,0.013671875,-0.01171875,0.0,0.0,0.0
71093153,56655,0,1.0,-0.02734375,0.013671875,-0.013671875,0.0,0.0,0.0
71094404,56656,0,1.009765625,-0.02734375,0.013671875,-0.013671875,0.0,0.0,0.0
71095654,56657,0,1.00390625,-0.03125,0.013671875,-0.017578125,0.0,0.0,0.0
71096904,56658,0,0.990234375,-0.02734375,0.017578125,-0.009765625,0.0,0.0,0.0
71098155,56659,0,1.009765625,-0.029296875,0.015625,-0.013671875,0.0,0.0,0.0
71099407,56660,0,1.00390625,-0.02734375,0.01953125,-0.0078125,0.0,0.0,0.0
71100657,56661,0,1.0,-0.03125,0.013671875,-0.017578125,0.0,0.0,0.0
71101909,56662,0,1.00390625,-0.02734375,0.015625,-0.01171875,0.0,0.0,0.0
71103159,56663,0,1.001953125,-0.025390625,0.017578125,-0.0078125,0.0,0.0,0.0
71104409,56664,0,1.001953125,-0.0234375,0.013671875,-0.009765625,0.0,0.0,0.0
71105661,56665,0,1.005859375,-0.0234375,0.017578125,-0.005859375,0.0,0.0,0.0
71106911,56666,0,1.001953125,-0.025390625,0.01953125,-0.005859375,0.0,0.0,0.0
71108161,56667,0,1.0,-0.025390625,0.017578125,-0.0078125,0.0,0.0,0.0
71109411,56668,0,1.00390625,-0.0234375,0.015625,-0.0078125,0.0,0.0,0.0
71110663,56669,0,1.00390625,-0.02734375,0.013671875,-0.013671875,0.0,0.0,0.0
71111913,56670,0,0.99609375,-0.025390625,0.015625,-0.009765625,0.0,0.0,0.0
71113164,56671,0,1.0078125,-0.02734375,0.01953125,-0.0078125,0.0,0.0,0.0
71114415,56672,0,1.00390625,-0.0234375,0.017578125,-0.005859375,0.0,0.0,0.0
71115666,56673,0,1.009765625,-0.0234375,0.015625,-0.0078125,0.0,0.0,0.0
71116916,56674,0,1.005859375,-0.025390625,0.015625,-0.009765625,0.0,0.0,0.0
71118167,56675,0,1.00390625,-0.025390625,0.013671875,-0.01171875,0.0,0.0,0.0
71119417,56676,0,1.0,-0.02734375,0.017578125,-0.009765625,0.0,0.0,0.0
71120668,56677,0,1.0078125,-0.0234375,0.015625,-0.0078125,0.0,0.0,0.0
71121920,56678,0,1.001953125,-0.025390625,0.017578125,-0.0078125,0.0,0.0,0.0
71123171,56679,0,1.009765625,-0.025390625,0.015625,-0.009765625,0.0,0.0,0.0
71124421,56680,0,1.001953125,-0.02734375,0.015625,-0.01171875,0.0,0.0,0.0
71125672,56681,0,1.001953125,-0.021484375,0.015625,-0.005859375,0.0,0.0,0.0
71126924,56682,0,1.0,-0.025390625,0.01953125,-0.005859375,0.0,0.0,0.0
71128174,56683,0,1.0078125,-0.021484375,0.017578125,-0.00390625,0.0,0.0,0.0
71129425,56684,0,1.00390625,-0.025390625,0.009765625,-0.015625,0.0,0.0,0.0
71130677,56685,0,1.005859375,-0.029296875,0.01953125,-0.009765625,0.0,0.0,0.0
71131927,56686,0,1.00390625,-0.0234375,0.01953125,-0.00390625,0.0,0.0,0.0
71133177,56687,0,1.009765625,-0.029296875,0.015625,-0.013671875,0.0,0.0,0.0
71134429,56688,0,1.001953125,-0.0234375,0.015625,-0.0078125,0.0,0.0,0.0
71135679,56689,0,1.00390625,-0.025390625,0.017578125,-0.0078125,0.0,0.0,0.0
71136931,56690,0,1.00390625,-0.02734375,0.015625,-0.01171875,0.0,0.0,0.0
71138181,56691,0,1.0078125,-0.03125,0.017578125,-0.013671875,0.0,0.0,0.0
71139431,56692,0,1.00390625,-0.02734375,0.013671875,-0.013671875,0.0,0.0,0.0
71140683,56693,0,1.0078125,-0.03125,0.01953125,-0.01171875,0.0,0.0,0.0
71141933,56694,0,1.005859375,-0.029296875,0.017578125,-0.01171875,0.0,0.0,0.0
71143183,56695,0,1.001953125,-0.02734375,0.015625,-0.01171875,0.0,0.0,0.0
71144434,56696,0,0.994140625,-0.021484375,0.01953125,-0.001953125,0.0,0.0,0.0
71145685,56697,0,1.009765625,-0.03515625,0.01171875,-0.0234375,0.0,0.0,0.0
71146936,56698,0,1.0,-0.03125,0.013671875,-0.017578125,0.0,0.0,0.0
71148186,56699,0,1.0,-0.03125,0.013671875,-0.017578125,0.0,0.0,0.0
71149437,56700,0,1.001953125,-0.02734375,0.005859375,-0.021484375,0.0,0.0,0.0
71150687,56701,0,1.00390625,-0.033203125,0.015625,-0.017578125,0.0,0.0,0.0
71151937,56702,0,1.0,-0.02734375,0.01171875,-0.015625,0.0,0.0,0.0
71153188,56703,0,1.001953125,-0.02734375,0.017578125,-0.009765625,0.0,0.0,0.0
71154440,56704,0,1.005859375,-0.02734375,0.013671875,-0.013671875,0.0,0.0,0.0
71155690,56705,0,1.005859375,-0.02734375,0.01171875,-0.015625,0.0,0.0,0.0
71156942,56706,0,1.005859375,-0.03125,0.009765625,-0.021484375,0.0,0.0,0.0
71158193,56707,0,0.998046875,-0.029296875,0.009765625,-0.01953125,0.0,0.0,0.0
71159445,56708,0,1.00390625,-0.029296875,0.015625,-0.013671875,0.0,0.0,0.0
71160695,56709,0,1.005859375,-0.029296875,0.01171875,-0.017578125,0.0,0.0,0.0
71161947,56710,0,0.998046875,-0.029296875,0.013671875,-0.015625,0.0,0.0,0.0
71163198,56711,0,1.00390625,-0.02734375,0.017578125,-0.009765625,0.0,0.0,0.0
71164450,56712,0,1.005859375,-0.021484375,0.01953125,-0.001953125,0.0,0.0,0.0
71165700,56713,0,1.0,-0.033203125,0.017578125,-0.015625,0.0,0.0,0.0
71166952,56714,0,1.005859375,-0.025390625,0.015625,-0.009765625,0.0,0.0,0.0
71168203,56715,0,1.001953125,-0.025390625,0.015625,-0.009765625,0.0,0.0,0.0
71169454,56716,0,0.99609375,-0.029296875,0.017578125,-0.01171875,0.0,0.0,0.0
71170705,56717,0,1.0078125,-0.025390625,0.015625,-0.009765625,0.0,0.0,0.0
71171957,56718,0,1.001953125,-0.0234375,0.01953125,-0.00390625,0.0,0.0,0.0
71173207,56719,0,0.998046875,-0.029296875,0.013671875,-0.015625,0.0,0.0,0.0
71174459,56720,0,1.001953125,-0.029296875,0.021484375,-0.0078125,0.0,0.0,0.0
71175709,56721,0,1.0078125,-0.0234375,0.017578125,-0.005859375,0.0,0.0,0.0
71176959,56722,0,1.0,-0.01953125,0.013671875,-0.005859375,0.0,0.0,0.0
71178209,56723,0,1.00390625,-0.0234375,0.015625,-0.0078125,0.0,0.0,0.0
71179459,56724,0,1.0078125,-0.0234375,0.017578125,-0.005859375,0.0,0.0,0.0
71180711,56725,0,1.00390625,-0.025390625,0.017578125,-0.0078125,0.0,0.0,0.0
71181961,56726,0,1.005859375,-0.02734375,0.015625,-0.01171875,0.0,0.0,0.0
71183213,56727,0,1.005859375,-0.02734375,0.015625,-0.01171875,0.0,0.0,0.0
71184464,56728,0,1.005859375,-0.021484375,0.013671875,-0.0078125,0.0,0.0,0.0
71185715,56729,0,1.00390625,-0.025390625,0.009765625,-0.015625,0.0,0.0,0.0
71186966,56730,0,1.0,-0.025390625,0.017578125,-0.0078125,0.0,0.0,0.0
71188216,56731,0,1.0078125,-0.025390625,0.015625,-0.009765625,0.0,0.0,0.0
71189467,56732,0,1.0,-0.025390625,0.013671875,-0.01171875,0.0,0.0,0.0
71190718,56733,0,1.005859375,-0.025390625,0.017578125,-0.0078125,0.0,0.0,0.0
71191968,56734,0,1.00390625,-0.03125,0.015625,-0.015625,0.0,0.0,0.0
71193219,56735,0,1.0,-0.03125,0.01953125,-0.01171875,0.0,0.0,0.0
71194470,56736,0,1.00390625,-0.0234375,0.017578125,-0.005859375,0.0,0.0,0.0
71195721,56737,0,1.001953125,-0.025390625,0.017578125,-0.0078125,0.0,0.0,0.0
71196971,56738,0,1.00390625,-0.02734375,0.013671875,-0.013671875,0.0,0.0,0.0
71198223,56739,0,0.998046875,-0.025390625,0.015625,-0.009765625,0.0,0.0,0.0
71199473,56740,0,1.001953125,-0.029296875,0.015625,-0.013671875,0.0,0.0,0.0
71200723,56741,0,1.00390625,-0.025390625,0.013671875,-0.01171875,0.0,0.0,0.0
71201975,56742,0,1.00390625,-0.029296875,0.009765625,-0.01953125,0.0,0.0,0.0
71203226,56743,0,1.005859375,-0.029296875,0.021484375,-0.0078125,0.0,0.0,0.0
71204476,56744,0,1.0078125,-0.025390625,0.01171875,-0.013671875,0.0,0.0,0.0
71205728,56745,0,1.00390625,-0.0234375,0.01953125,-0.00390625,0.0,0.0,0.0
71206979,56746,0,1.001953125,-0.025390625,0.013671875,-0.01171875,0.0,0.0,0.0
71208229,56747,0,0.998046875,-0.029296875,0.021484375,-0.0078125,0.0,0.0,0.0
71209481,56748,0,0.998046875,-0.029296875,0.013671875,-0.015625,0.0,0.0,0.0
71210731,56749,0,1.005859375,-0.02734375,0.01171875,-0.015625,0.0,0.0,0.0
71211981,56750,0,1.005859375,-0.03515625,0.015625,-0.01953125,0.0,0.0,0.0
71213232,56751,0,1.005859375,-0.02734375,0.01953125,-0.0078125,0.0,0.0,0.0
71214483,56752,0,1.001953125,-0.025390625,0.015625,-0.009765625,0.0,0.0,0.0
71215734,56753,0,1.001953125,-0.025390625,0.013671875,-0.01171875,0.0,0.0,0.0
71216986,56754,0,0.998046875,-0.03125,0.017578125,-0.013671875,0.0,0.0,0.0
71218236,56755,0,0.994140625,-0.029296875,0.017578125,-0.01171875,0.0,0.0,0.0
71219486,56756,0,1.0078125,-0.02734375,0.015625,-0.01171875,0.0,0.0,0.0
71220737,56757,0,1.0,-0.02734375,0.013671875,-0.013671875,0.0,0.0,0.0
71221987,56758,0,1.001953125,-0.029296875,0.001953125,-0.02734375,0.0,0.0,0.0
71223238,56759,0,1.00390625,-0.02734375,0.017578125,-0.009765625,0.0,0.0,0.0
71224489,56760,0,1.009765625,-0.02734375,0.009765625,-0.017578125,0.0,0.0,0.0
71225740,56761,0,0.998046875,-0.02734375,0.013671875,-0.013671875,0.0,0.0,0.0
71226991,56762,0,0.998046875,-0.025390625,0.021484375,-0.00390625,0.0,0.0,0.0
71228241,56763,0,0.998046875,-0.021484375,0.001953125,-0.01953125,0.0,0.0,0.0
71229492,56764,0,1.00390625,-0.029296875,0.015625,-0.013671875,0.0,0.0,0.0
71230744,56765,0,0.9921875,-0.02734375,0.013671875,-0.013671875,0.0,0.0,0.0
71231994,56766,0,1.005859375,-0.0234375,0.017578125,-0.005859375,0.0,0.0,0.0
71233245,56767,0,1.005859375,-0.029296875,0.015625,-0.013671875,0.0,0.0,0.0
71234496,56768,0,0.998046875,-0.025390625,0.015625,-0.009765625,0.0,0.0,0.0
71235747,56769,0,1.0,-0.029296875,0.01171875,-0.017578125,0.0,0.0,0.0
71236998,56770,0,1.005859375,-0.025390625,0.017578125,-0.0078125,0.0,0.0,0.0
71238249,56771,0,1.00390625,-0.0234375,0.01953125,-0.00390625,0.0,0.0,0.0
71239499,56772,0,1.0078125,-0.02734375,0.013671875,-0.013671875,0.0,0.0,0.0
71240751,56773,0,1.001953125,-0.03125,0.01171875,-0.01953125,0.0,0.0,0.0
71242002,56774,0,1.00390625,-0.02734375,0.01953125,-0.0078125,0.0,0.0,0.0
71243253,56775,0,1.001953125,-0.02734375,0.013671875,-0.013671875,0.0,0.0,0.0
71244503,56776,0,1.00390625,-0.0234375,0.013671875,-0.009765625,0.0,0.0,0.0
71245755,56777,0,1.001953125,-0.03125,0.013671875,-0.017578125,0.0,0.0,0.0
71247005,56778,0,0.998046875,-0.0234375,0.009765625,-0.013671875,0.0,0.0,0.0
71248256,56779,0,1.001953125,-0.03515625,0.013671875,-0.021484375,0.0,0.0,0.0
71249506,56780,0,1.0,-0.03125,0.005859375,-0.025390625,0.0,0.0,0.0
71250757,56781,0,1.0078125,-0.029296875,0.013671875,-0.015625,0.0,0.0,0.0
71252008,56782,0,1.001953125,-0.029296875,0.01953125,-0.009765625,0.0,0.0,0.0
71253258,56783,0,1.017578125,-0.025390625,0.017578125,-0.0078125,0.0,0.0,0.0
71254508,56784,0,0.99609375,-0.0234375,0.009765625,-0.013671875,0.0,0.0,0.0
71255759,56785,0,1.0,-0.025390625,0.013671875,-0.01171875,0.0,0.0,0.0
71257009,56786,0,1.001953125,-0.025390625,0.01171875,-0.013671875,0.0,0.0,0.0
71258259,56787,0,1.001953125,-0.025390625,0.013671875,-0.01171875,0.0,0.0,0.0
71259510,56788,0,1.001953125,-0.02734375,0.013671875,-0.013671875,0.0,0.0,0.0
71260762,56789,0,1.005859375,-0.03125,0.017578125,-0.013671875,0.0,0.0,0.0
71262012,56790,0,1.005859375,-0.025390625,0.015625,-0.009765625,0.0,0.0,0.0
71263271,56791,0,1.0,-0.025390625,0.015625,-0.009765625,0.0,0.0,0.0
71264521,56792,0,1.005859375,-0.033203125,0.005859375,-0.02734375,0.0,0.0,0.0
71265773,56793,0,1.0,-0.02734375,0.009765625,-0.017578125,0.0,0.0,0.0
71267023,56794,0,1.001953125,-0.02734375,0.01171875,-0.015625,0.0,0.0,0.0
71268274,56795,0,1.001953125,-0.029296875,0.015625,-0.013671875,0.0,0.0,0.0
71269525,56796,0,0.998046875,-0.029296875,0.015625,-0.013671875,0.0,0.0,0.0
71270776,56797,0,1.00390625,-0.02734375,0.0078125,-0.01953125,0.0,0.0,0.0
71272026,56798,0,1.0078125,-0.02734375,0.01953125,-0.0078125,0.0,0.0,0.0
71273276,56799,0,1.005859375,-0.02734375,0.015625,-0.01171875,0.0,0.0,0.0
71274527,56800,0,1.0,-0.025390625,0.01171875,-0.013671875,0.0,0.0,0.0
71275778,56801,0,1.00390625,-0.03125,0.025390625,-0.005859375,0.0,0.0,0.0
71277029,56802,0,1.001953125,-0.0234375,0.009765625,-0.013671875,0.0,0.0,0.0
71278280,56803,0,1.001953125,-0.025390625,0.0234375,-0.001953125,0.0,0.0,0.0
71279531,56804,0,0.9921875,-0.02734375,0.009765625,-0.017578125,0.0,0.0,0.0
71280783,56805,0,1.005859375,-0.02734375,0.005859375,-0.021484375,0.0,0.0,0.0
71282034,56806,0,1.001953125,-0.0234375,0.013671875,-0.009765625,0.0,0.0,0.0
71283286,56807,0,1.0078125,-0.025390625,0.017578125,-0.0078125,0.0,0.0,0.0
71284537,56808,0,1.0078125,-0.02734375,0.013671875,-0.013671875,0.0,0.0,0.0
71285789,56809,0,0.998046875,-0.03125,0.0078125,-0.0234375,0.0,0.0,0.0
71287039,56810,0,1.0,-0.025390625,0.015625,-0.009765625,0.0,0.0,0.0
71288289,56811,0,1.00390625,-0.021484375,0.015625,-0.005859375,0.0,0.0,0.0
71289541,56812,0,1.00390625,-0.0234375,0.009765625,-0.013671875,0.0,0.0,0.0
71290792,56813,0,1.001953125,-0.021484375,0.015625,-0.005859375,0.0,0.0,0.0
71292044,56814,0,1.00390625,-0.025390625,0.021484375,-0.00390625,0.0,0.0,0.0
71293294,56815,0,1.00390625,-0.0234375,0.015625,-0.0078125,0.0,0.0,0.0
71294544,56816,0,1.0078125,-0.0234375,0.013671875,-0.009765625,0.0,0.0,0.0
71295795,56817,0,1.00390625,-0.02734375,0.017578125,-0.009765625,0.0,0.0,0.0
71297045,56818,0,1.00390625,-0.0234375,0.017578125,-0.005859375,0.0,0.0,0.0
71298295,56819,0,1.005859375,-0.025390625,0.01171875,-0.013671875,0.0,0.0,0.0
71299546,56820,0,1.0078125,-0.025390625,0.01953125,-0.005859375,0.0,0.0,0.0
71300797,56821,0,1.0078125,-0.025390625,0.017578125,-0.0078125,0.0,0.0,0.0
71302048,56822,0,1.009765625,-0.02734375,0.0078125,-0.01953125,0.0,0.0,0.0
71303299,56823,0,1.005859375,-0.025390625,0.017578125,-0.0078125,0.0,0.0,0.0
71304550,56824,0,1.009765625,-0.02734375,0.015625,-0.01171875,0.0,0.0,0.0
71305800,56825,0,0.99609375,-0.02734375,0.017578125,-0.009765625,0.0,0.0,0.0
71307052,56826,0,1.00390625,-0.029296875,0.01953125,-0.009765625,0.0,0.0,0.0
71308303,56827,0,1.0,-0.025390625,0.015625,-0.009765625,0.0,0.0,0.0
71309554,56828,0,1.005859375,-0.0234375,0.017578125,-0.005859375,0.0,0.0,0.0
71310805,56829,0,1.00390625,-0.025390625,0.013671875,-0.01171875,0.0,0.0,0.0
71312057,56830,0,1.009765625,-0.02734375,0.015625,-0.01171875,0.0,0.0,0.0
71313308,56831,0,0.998046875,-0.025390625,0.017578125,-0.0078125,0.0,0.0,0.0
71314560,56832,0,1.001953125,-0.03125,0.013671875,-0.017578125,0.0,0.0,0.0
71315811,56833,0,1.005859375,-0.03125,0.013671875,-0.017578125,0.0,0.0,0.0
71317063,56834,0,1.001953125,-0.025390625,0.017578125,-0.0078125,0.0,0.0,0.0
71318314,56835,0,1.001953125,-0.02734375,0.017578125,-0.009765625,0.0,0.0,0.0
71319565,56836,0,1.005859375,-0.02734375,0.017578125,-0.009765625,0.0,0.0,0.0
71320816,56837,0,1.005859375,-0.02734375,0.025390625,-0.001953125,0.0,0.0,0.0
71322066,56838,0,1.0,-0.0234375,0.015625,-0.0078125,0.0,0.0,0.0
71323318,56839,0,0.998046875,-0.029296875,0.015625,-0.013671875,0.0,0.0,0.0
71324569,56840,0,1.0078125,-0.03125,0.015625,-0.015625,0.0,0.0,0.0
71325819,56841,0,1.00390625,-0.02734375,0.017578125,-0.009765625,0.0,0.0,0.0
71327070,56842,0,1.005859375,-0.0234375,0.013671875,-0.009765625,0.0,0.0,0.0
71328321,56843,0,1.0,-0.025390625,0.01953125,-0.005859375,0.0,0.0,0.0
71329572,56844,0,0.998046875,-0.0234375,0.013671875,-0.009765625,0.0,0.0,0.0
71330823,56845,0,1.001953125,-0.0234375,0.01171875,-0.01171875,0.0,0.0,0.0
71332074,56846,0,1.00390625,-0.033203125,0.013671875,-0.01953125,0.0,0.0,0.0
71333325,56847,0,1.001953125,-0.03125,0.015625,-0.015625,0.0,0.0,0.0
71334575,56848,0,1.00390625,-0.02734375,0.013671875,-0.013671875,0.0,0.0,0.0
71335825,56849,0,1.001953125,-0.0234375,0.015625,-0.0078125,0.0,0.0,0.0
71337076,56850,0,1.00390625,-0.025390625,0.017578125,-0.0078125,0.0,0.0,0.0
71338326,56851,0,1.00390625,-0.02734375,0.01953125,-0.0078125,0.0,0.0,0.0
71339577,56852,0,1.00390625,-0.0234375,0.017578125,-0.005859375,0.0,0.0,0.0
71340828,56853,0,1.001953125,-0.02734375,0.015625,-0.01171875,0.0,0.0,0.0
71342078,56854,0,1.005859375,-0.029296875,0.01171875,-0.017578125,0.0,0.0,0.0
71343329,56855,0,1.005859375,-0.02734375,0.009765625,-0.017578125,0.0,0.0,0.0
71344581,56856,0,1.00390625,-0.02734375,0.015625,-0.01171875,0.0,0.0,0.0
71345833,56857,0,1.00390625,-0.029296875,0.009765625,-0.01953125,0.0,0.0,0.0
71347083,56858,0,1.001953125,-0.029296875,0.017578125,-0.01171875,0.0,0.0,0.0
71348333,56859,0,1.00390625,-0.033203125,0.01171875,-0.021484375,0.0,0.0,0.0
71349584,56860,0,1.001953125,-0.02734375,0.017578125,-0.009765625,0.0,0.0,0.0
71350835,56861,0,1.005859375,-0.02734375,0.0078125,-0.01953125,0.0,0.0,0.0
71352085,56862,0,0.99609375,-0.02734375,0.017578125,-0.009765625,0.0,0.0,0.0
71353336,56863,0,1.001953125,-0.03125,0.015625,-0.015625,0.0,0.0,0.0
71354587,56864,0,1.005859375,-0.025390625,0.0234375,-0.001953125,0.0,0.0,0.0
71355838,56865,0,1.0,-0.029296875,0.017578125,-0.01171875,0.0,0.0,0.0
71357090,56866,0,0.998046875,-0.029296875,0.015625,-0.013671875,0.0,0.0,0.0
71358341,56867,0,1.005859375,-0.02734375,0.015625,-0.01171875,0.0,0.0,0.0
71359592,56868,0,0.998046875,-0.029296875,0.01953125,-0.009765625,0.0,0.0,0.0
71360844,56869,0,1.013671875,-0.029296875,0.015625,-0.013671875,0.0,0.0,0.0
71362095,56870,0,1.0078125,-0.02734375,0.013671875,-0.013671875,0.0,0.0,0.0
71363346,56871,0,1.005859375,-0.02734375,0.0234375,-0.00390625,0.0,0.0,0.0
71364597,56872,0,1.001953125,-0.02734375,0.01171875,-0.015625,0.0,0.0,0.0
71365849,56873,0,1.001953125,-0.025390625,0.013671875,-0.01171875,0.0,0.0,0.0
71367099,56874,0,1.00390625,-0.029296875,0.01953125,-0.009765625,0.0,0.0,0.0
71368351,56875,0,0.998046875,-0.025390625,0.013671875,-0.01171875,0.0,0.0,0.0
71369602,56876,0,1.0,-0.02734375,0.01953125,-0.0078125,0.0,0.0,0.0
71370854,56877,0,1.00390625,-0.029296875,0.017578125,-0.01171875,0.0,0.0,0.0
71372104,56878,0,1.00390625,-0.025390625,0.01171875,-0.013671875,0.0,0.0,0.0
71373354,56879,0,1.00390625,-0.025390625,0.015625,-0.009765625,0.0,0.0,0.0
71374605,56880,0,1.00390625,-0.02734375,0.013671875,-0.013671875,0.0,0.0,0.0
71375855,56881,0,1.001953125,-0.029296875,0.013671875,-0.015625,0.0,0.0,0.0
71377107,56882,0,1.0,-0.021484375,0.01953125,-0.001953125,0.0,0.0,0.0
71378358,56883,0,1.001953125,-0.02734375,0.013671875,-0.013671875,0.0,0.0,0.0
71379609,56884,0,1.0,-0.025390625,0.017578125,-0.0078125,0.0,0.0,0.0
71380859,56885,0,1.00390625,-0.029296875,0.015625,-0.013671875,0.0,0.0,0.0
71382111,56886,0,1.015625,-0.0234375,0.009765625,-0.013671875,0.0,0.0,0.0
71383362,56887,0,0.99609375,-0.02734375,0.021484375,-0.005859375,0.0,0.0,0.0
71384613,56888,0,1.013671875,-0.029296875,0.017578125,-0.01171875,0.0,0.0,0.0
71385865,56889,0,0.99609375,-0.025390625,0.01953125,-0.005859375,0.0,0.0,0.0
71387115,56890,0,1.015625,-0.025390625,0.0078125,-0.017578125,0.0,0.0,0.0
71388365,56891,0,1.001953125,-0.0234375,0.009765625,-0.013671875,0.0,0.0,0.0
71389617,56892,0,1.001953125,-0.02734375,0.017578125,-0.009765625,0.0,0.0,0.0
71390867,56893,0,0.998046875,-0.025390625,0.015625,-0.009765625,0.0,0.0,0.0
71392118,56894,0,1.005859375,-0.02734375,0.015625,-0.01171875,0.0,0.0,0.0
71393369,56895,0,1.005859375,-0.029296875,0.01171875,-0.017578125,0.0,0.0,0.0
71394620,56896,0,1.001953125,-0.0234375,0.015625,-0.0078125,0.0,0.0,0.0
71395871,56897,0,1.0078125,-0.029296875,0.01171875,-0.017578125,0.0,0.0,0.0
71397123,56898,0,1.001953125,-0.029296875,0.013671875,-0.015625,0.0,0.0,0.0
71398374,56899,0,1.00390625,-0.025390625,0.015625,-0.009765625,0.0,0.0,0.0
71399624,56900,0,1.001953125,-0.025390625,0.017578125,-0.0078125,0.0,0.0,0.0
71400875,56901,0,1.00390625,-0.0234375,0.015625,-0.0078125,0.0,0.0,0.0
71402125,56902,0,1.0078125,-0.025390625,0.01171875,-0.013671875,0.0,0.0,0.0
71403375,56903,0,1.00390625,-0.0234375,0.015625,-0.0078125,0.0,0.0,0.0
71404626,56904,0,1.00390625,-0.02734375,0.017578125,-0.009765625,0.0,0.0,0.0
71405877,56905,0,1.001953125,-0.029296875,0.013671875,-0.015625,0.0,0.0,0.0
71407129,56906,0,1.005859375,-0.03125,0.015625,-0.015625,0.0,0.0,0.0
71408380,56907,0,0.998046875,-0.02734375,0.0078125,-0.01953125,0.0,0.0,0.0
71409630,56908,0,0.998046875,-0.029296875,0.013671875,-0.015625,0.0,0.0,0.0
71410881,56909,0,1.005859375,-0.0234375,0.013671875,-0.009765625,0.0,0.0,0.0
71412133,56910,0,1.00390625,-0.029296875,0.013671875,-0.015625,0.0,0.0,0.0
71413384,56911,0,1.005859375,-0.0234375,0.01171875,-0.01171875,0.0,0.0,0.0
71414634,56912,0,1.0078125,-0.025390625,0.017578125,-0.0078125,0.0,0.0,0.0
71415886,56913,0,1.009765625,-0.01953125,0.01953125,0.0,0.0,0.0,0.0
71417136,56914,0,1.005859375,-0.0234375,0.015625,-0.0078125,0.0,0.0,0.0
71418386,56915,0,1.0078125,-0.025390625,0.01953125,-0.005859375,0.0,0.0,0.0
71419638,56916,0,1.0078125,-0.029296875,0.017578125,-0.01171875,0.0,0.0,0.0
71420888,56917,0,1.00390625,-0.029296875,0.017578125,-0.01171875,0.0,0.0,0.0
71422139,56918,0,1.00390625,-0.029296875,0.013671875,-0.015625,0.0,0.0,0.0
71423391,56919,0,1.005859375,-0.025390625,0.013671875,-0.01171875,0.0,0.0,0.0
71424641,56920,0,1.009765625,-0.02734375,0.015625,-0.01171875,0.0,0.0,0.0
71425892,56921,0,1.0078125,-0.02734375,0.015625,-0.01171875,0.0,0.0,0.0
71427142,56922,0,1.001953125,-0.025390625,0.017578125,-0.0078125,0.0,0.0,0.0
71428393,56923,0,0.99609375,-0.029296875,0.01953125,-0.009765625,0.0,0.0,0.0
71429645,56924,0,1.0078125,-0.02734375,0.017578125,-0.009765625,0.0,0.0,0.0
71430895,56925,0,1.00390625,-0.02734375,0.01171875,-0.015625,0.0,0.0,0.0
71432147,56926,0,1.01171875,-0.02734375,0.017578125,-0.009765625,0.0,0.0,0.0
71433397,56927,0,1.001953125,-0.0234375,0.015625,-0.0078125,0.0,0.0,0.0
71434649,56928,0,1.0078125,-0.0234375,0.017578125,-0.005859375,0.0,0.0,-4.0592677371327283e+18
71437149,56930,0,1.0,-0.0234375,0.021484375,-0.001953125,0.0,0.0,0.0
71438399,56931,0,1.0,-0.0234375,0.01953125,-0.00390625,0.0,0.0,0.0
71439650,56932,0,1.00390625,-0.029296875,0.017578125,-0.01171875,0.0,0.0,0.0
71440902,56933,0,1.0,-0.025390625,0.013671875,-0.01171875,0.0,0.0,0.0
71442153,56934,0,1.0,-0.0234375,0.01953125,-0.00390625,0.0,0.0,0.0
71443404,56935,0,1.001953125,-0.025390625,0.013671875,-0.01171875,0.0,0.0,0.0
71444654,56936,0,1.0078125,-0.025390625,0.01953125,-0.005859375,0.0,0.0,0.0
71445904,56937,0,1.00390625,-0.025390625,0.01953125,-0.005859375,0.0,0.0,0.0
71447155,56938,0,1.001953125,-0.02734375,0.017578125,-0.009765625,0.0,0.0,0.0
71448407,56939,0,1.005859375,-0.0234375,0.01953125,-0.00390625,0.0,0.0,0.0
71449657,56940,0,1.00390625,-0.02734375,0.013671875,-0.013671875,0.0,0.0,0.0
71450909,56941,0,1.005859375,-0.02734375,0.017578125,-0.009765625,0.0,0.0,0.0
71452159,56942,0,1.0,-0.0234375,0.017578125,-0.005859375,0.0,0.0,0.0
71453409,56943,0,1.001953125,-0.02734375,0.017578125,-0.009765625,0.0,0.0,0.0
71454661,56944,0,1.00390625,-0.02734375,0.017578125,-0.009765625,0.0,0.0,0.0
71455911,56945,0,1.005859375,-0.02734375,0.01171875,-0.015625,0.0,0.0,0.0
71457161,56946,0,1.005859375,-0.029296875,0.013671875,-0.015625,0.0,0.0,0.0
71458411,56947,0,1.00390625,-0.0234375,0.021484375,-0.001953125,0.0,0.0,0.0
71459663,56948,0,1.0078125,-0.025390625,0.013671875,-0.01171875,0.0,0.0,0.0
71460913,56949,0,1.005859375,-0.02734375,0.017578125,-0.009765625,0.0,0.0,0.0
71462164,56950,0,1.0078125,-0.0234375,0.01171875,-0.01171875,0.0,0.0,0.0
71463415,56951,0,1.005859375,-0.021484375,0.01953125,-0.001953125,0.0,0.0,0.0
71464666,56952,0,1.009765625,-0.0234375,0.009765625,-0.013671875,0.0,0.0,0.0
71465916,56953,0,1.001953125,-0.01953125,0.015625,-0.00390625,0.0,0.0,0.0
71467167,56954,0,0.99609375,-0.02734375,0.01171875,-0.015625,0.0,0.0,0.0
71468417,56955,0,1.001953125,-0.029296875,0.015625,-0.013671875,0.0,0.0,0.0
71469668,56956,0,1.0078125,-0.025390625,0.01171875,-0.013671875,0.0,0.0,0.0
71470920,56957,0,1.0078125,-0.029296875,0.015625,-0.013671875,0.0,0.0,0.0
71472171,56958,0,1.001953125,-0.025390625,0.015625,-0.009765625,0.0,0.0,0.0
71473421,56959,0,1.005859375,-0.029296875,0.013671875,-0.015625,0.0,0.0,0.0
71474672,56960,0,1.001953125,-0.021484375,0.015625,-0.005859375,0.0,0.0,0.0
71475924,56961,0,0.998046875,-0.02734375,0.017578125,-0.009765625,0.0,0.0,0.0
71477174,56962,0,1.001953125,-0.02734375,0.017578125,-0.009765625,0.0,0.0,0.0
71478425,56963,0,1.00390625,-0.02734375,0.015625,-0.01171875,0.0,0.0,0.0
71479677,56964,0,1.0,-0.02734375,0.01171875,-0.015625,0.0,0.0,0.0
71480927,56965,0,1.005859375,-0.02734375,0.013671875,-0.013671875,0.0,0.0,0.0
71482177,56966,0,1.00390625,-0.02734375,0.01171875,-0.015625,0.0,0.0,0.0
71483429,56967,0,1.009765625,-0.025390625,0.015625,-0.009765625,0.0,0.0,0.0
71484679,56968,0,1.0078125,-0.021484375,0.01953125,-0.001953125,0.0,0.0,0.0
71485931,56969,0,1.005859375,-0.02734375,0.01953125,-0.0078125,0.0,0.0,0.0
71487181,56970,0,1.001953125,-0.0234375,0.009765625,-0.013671875,0.0,0.0,0.0
71488431,56971,0,1.005859375,-0.0234375,0.017578125,-0.005859375,0.0,0.0,0.0
71489683,56972,0,1.0078125,-0.025390625,0.009765625,-0.015625,0.0,0.0,0.0
71490933,56973,0,0.998046875,-0.033203125,0.017578125,-0.015625,0.0,0.0,0.0
71492183,56974,0,0.99609375,-0.02734375,0.015625,-0.01171875,0.0,0.0,0.0
71493434,56975,0,0.998046875,-0.025390625,0.01171875,-0.013671875,0.0,0.0,0.0
71494685,56976,0,1.013671875,-0.0234375,0.01953125,-0.00390625,0.0,0.0,0.0
71495936,56977,0,0.998046875,-0.0234375,0.015625,-0.0078125,0.0,0.0,0.0
71497186,56978,0,1.0,-0.025390625,0.021484375,-0.00390625,0.0,0.0,0.0
71498437,56979,0,1.001953125,-0.029296875,0.013671875,-0.015625,0.0,0.0,0.0
71499687,56980,0,1.00390625,-0.025390625,0.01953125,-0.005859375,0.0,0.0,0.0
71500937,56981,0,1.0,-0.03125,0.013671875,-0.017578125,0.0,0.0,0.0
71502188,56982,0,1.001953125,-0.025390625,0.017578125,-0.0078125,0.0,0.0,0.0
71503440,56983,0,1.005859375,-0.025390625,0.017578125,-0.0078125,0.0,0.0,0.0
71504690,56984,0,0.99609375,-0.02734375,0.015625,-0.01171875,0.0,0.0,0.0
71505942,56985,0,1.00390625,-0.025390625,0.017578125,-0.0078125,0.0,0.0,0.0
71507193,56986,0,1.001953125,-0.03125,0.021484375,-0.009765625,0.0,0.0,0.0
71508445,56987,0,1.005859375,-0.029296875,0.01171875,-0.017578125,0.0,0.0,0.0
71509695,56988,0,1.00390625,-0.025390625,0.013671875,-0.01171875,0.0,0.0,0.0
71510947,56989,0,1.0,-0.025390625,0.021484375,-0.00390625,0.0,0.0,0.0
71512198,56990,0,1.005859375,-0.02734375,0.01953125,-0.0078125,0.0,0.0,0.0
71513450,56991,0,1.005859375,-0.02734375,0.015625,-0.01171875,0.0,0.0,0.0
71514700,56992,0,0.998046875,-0.029296875,0.017578125,-0.01171875,0.0,0.0,0.0
71515952,56993,0,1.0,-0.025390625,0.01953125,-0.005859375,0.0,0.0,0.0
71517203,56994,0,1.0078125,-0.03125,0.015625,-0.015625,0.0,0.0,0.0
71518454,56995,0,1.005859375,-0.025390625,0.017578125,-0.0078125,0.0,0.0,0.0
71519705,56996,0,0.990234375,-0.033203125,0.017578125,-0.015625,0.0,0.0,0.0
71520957,56997,0,0.99609375,-0.02734375,0.0078125,-0.01953125,0.0,0.0,0.0
71522207,56998,0,1.001953125,-0.029296875,0.009765625,-0.01953125,0.0,0.0,0.0
71523459,56999,0,1.005859375,-0.03125,0.017578125,-0.013671875,0.0,0.0,0.0
71524709,57000,0,1.0078125,-0.029296875,0.015625,-0.013671875,0.0,0.0,0.0
71525959,57001,0,0.998046875,-0.0234375,0.015625,-0.0078125,0.0,0.0,0.0
71527209,57002,0,0.99609375,-0.02734375,0.01171875,-0.015625,0.0,0.0,0.0
71528459,57003,0,1.00390625,-0.029296875,0.021484375,-0.0078125,0.0,0.0,0.0
71529711,57004,0,1.001953125,-0.02734375,0.005859375,-0.021484375,0.0,0.0,0.0
71530961,57005,0,1.001953125,-0.029296875,0.017578125,-0.01171875,0.0,0.0,0.0
71532213,57006,0,1.005859375,-0.029296875,0.015625,-0.013671875,0.0,0.0,0.0
71533464,57007,0,1.0078125,-0.025390625,0.015625,-0.009765625,0.0,0.0,0.0
71534715,57008,0,1.005859375,-0.033203125,0.01953125,-0.013671875,0.0,0.0,0.0
71535966,57009,0,1.00390625,-0.0234375,0.017578125,-0.005859375,0.0,0.0,0.0
71537216,57010,0,1.001953125,-0.02734375,0.021484375,-0.005859375,0.0,0.0,0.0
71538467,57011,0,0.998046875,-0.0234375,0.017578125,-0.005859375,0.0,0.0,0.0
71539718,57012,0,1.00390625,-0.025390625,0.017578125,-0.0078125,0.0,0.0,0.0
71540968,57013,0,1.005859375,-0.025390625,0.0234375,-0.001953125,0.0,0.0,0.0
71542219,57014,0,1.00390625,-0.021484375,0.021484375,0.0,0.0,0.0,0.0
71543470,57015,0,1.005859375,-0.02734375,0.017578125,-0.009765625,0.0,0.0,0.0
71544721,57016,0,1.015625,-0.0234375,0.01171875,-0.01171875,0.0,0.0,0.0
71545971,57017,0,1.001953125,-0.021484375,0.01171875,-0.009765625,0.0,0.0,0.0
71547223,57018,0,1.00390625,-0.02734375,0.015625,-0.01171875,0.0,0.0,0.0
71548473,57019,0,1.001953125,-0.02734375,0.01953125,-0.0078125,0.0,0.0,0.0
71549723,57020,0,1.001953125,-0.01953125,0.0078125,-0.01171875,0.0,0.0,0.0
71550975,57021,0,1.0078125,-0.02734375,0.013671875,-0.013671875,0.0,0.0,0.0
71552226,57022,0,1.0,-0.0234375,0.005859375,-0.017578125,0.0,0.0,0.0
71553476,57023,0,1.005859375,-0.02734375,0.013671875,-0.013671875,0.0,0.0,0.0
71554728,57024,0,1.005859375,-0.0234375,0.013671875,-0.009765625,0.0,0.0,0.0
71555979,57025,0,1.00390625,-0.025390625,0.017578125,-0.0078125,0.0,0.0,0.0
71557229,57026,0,0.998046875,-0.029296875,0.015625,-0.013671875,0.0,0.0,0.0
71558481,57027,0,1.00390625,-0.029296875,0.013671875,-0.015625,0.0,0.0,0.0
71559731,57028,0,0.99609375,-0.025390625,0.013671875,-0.01171875,0.0,0.0,0.0
71560981,57029,0,1.00390625,-0.0234375,0.013671875,-0.009765625,0.0,0.0,0.0
71562232,57030,0,0.998046875,-0.02734375,0.00390625,-0.0234375,0.0,0.0,0.0
71563483,57031,0,1.0,-0.02734375,0.009765625,-0.017578125,0.0,0.0,0.0
71564734,57032,0,1.001953125,-0.025390625,0.013671875,-0.01171875,0.0,0.0,0.0
71565986,57033,0,1.009765625,-0.021484375,0.009765625,-0.01171875,0.0,0.0,0.0
71567236,57034,0,1.00390625,-0.03125,0.01953125,-0.01171875,0.0,0.0,0.0
71568486,57035,0,1.001953125,-0.02734375,0.013671875,-0.013671875,0.0,0.0,0.0
71569737,57036,0,1.005859375,-0.021484375,0.015625,-0.005859375,0.0,0.0,0.0
71570987,57037,0,1.0078125,-0.02734375,0.01171875,-0.015625,0.0,0.0,0.0
71572238,57038,0,0.998046875,-0.02734375,0.013671875,-0.013671875,0.0,0.0,0.0
71573489,57039,0,1.0078125,-0.0234375,0.0078125,-0.015625,0.0,0.0,0.0
71574740,57040,0,1.0,-0.03125,0.01171875,-0.01953125,0.0,0.0,0.0
71575991,57041,0,1.013671875,-0.0234375,0.01171875,-0.01171875,0.0,0.0,0.0
71577241,57042,0,0.99609375,-0.029296875,0.01953125,-0.009765625,0.0,0.0,0.0
71578492,57043,0,1.005859375,-0.025390625,0.013671875,-0.01171875,0.0,0.0,0.0
71579744,57044,0,1.00390625,-0.025390625,0.015625,-0.009765625,0.0,0.0,0.0
71580994,57045,0,0.998046875,-0.025390625,0.0078125,-0.017578125,0.0,0.0,0.0
71582245,57046,0,1.009765625,-0.02734375,0.0078125,-0.01953125,0.0,0.0,0.0
71583496,57047,0,1.0,-0.025390625,0.013671875,-0.01171875,0.0,0.0,0.0
71584747,57048,0,1.0,-0.029296875,0.013671875,-0.015625,0.0,0.0,0.0
71585998,57049,0,1.001953125,-0.033203125,0.017578125,-0.015625,0.0,0.0,0.0
71587249,57050,0,1.005859375,-0.025390625,0.015625,-0.009765625,0.0,0.0,0.0
71588499,57051,0,1.0078125,-0.02734375,0.01171875,-0.015625,0.0,0.0,0.0
71589751,57052,0,1.005859375,-0.029296875,0.015625,-0.013671875,0.0,0.0,0.0
71591002,57053,0,1.00390625,-0.02734375,0.013671875,-0.013671875,0.0,0.0,0.0
71592253,57054,0,1.013671875,-0.02734375,0.013671875,-0.013671875,0.0,0.0,0.0
71593503,57055,0,1.00390625,-0.02734375,0.013671875,-0.013671875,0.0,0.0,0.0
71594755,57056,0,1.00390625,-0.02734375,0.01171875,-0.015625,0.0,0.0,0.0
71596005,57057,0,1.001953125,-0.033203125,0.015625,-0.017578125,0.0,0.0,0.0
71597256,57058,0,1.0078125,-0.02734375,0.021484375,-0.005859375,0.0,0.0,0.0
71598506,57059,0,1.0,-0.025390625,0.0234375,-0.001953125,0.0,0.0,0.0
71599757,57060,0,1.015625,-0.02734375,0.021484375,-0.005859375,0.0,0.0,0.0
71601008,57061,0,1.009765625,-0.03125,0.017578125,-0.013671875,0.0,0.0,0.0
71602258,57062,0,1.001953125,-0.029296875,0.013671875,-0.015625,0.0,0.0,0.0
71603508,57063,0,1.001953125,-0.025390625,0.009765625,-0.015625,0.0,0.0,0.0
71604759,57064,0,1.0,-0.025390625,0.017578125,-0.0078125,0.0,0.0,0.0
71606009,57065,0,1.00390625,-0.02734375,0.01171875,-0.015625,0.0,0.0,0.0
71607259,57066,0,1.00390625,-0.029296875,0.01953125,-0.009765625,0.0,0.0,0.0
71608510,57067,0,1.005859375,-0.025390625,0.015625,-0.009765625,0.0,0.0,0.0
71609762,57068,0,1.005859375,-0.02734375,0.021484375,-0.005859375,0.0,0.0,0.0
71611012,57069,0,1.00390625,-0.0234375,0.017578125,-0.005859375,0.0,0.0,0.0
71612271,57070,0,1.00390625,-0.025390625,0.021484375,-0.00390625,0.0,0.0,0.0
71613521,57071,0,1.0,-0.025390625,0.017578125,-0.0078125,0.0,0.0,0.0
71614773,57072,0,1.005859375,-0.02734375,0.01953125,-0.0078125,0.0,0.0,0.0
71616023,57073,0,1.0,-0.02734375,0.01953125,-0.0078125,0.0,0.0,0.0
71617274,57074,0,1.005859375,-0.025390625,0.017578125,-0.0078125,0.0,0.0,0.0
71618525,57075,0,1.001953125,-0.025390625,0.01171875,-0.013671875,0.0,0.0,0.0
71619776,57076,0,1.0,-0.021484375,0.013671875,-0.0078125,0.0,0.0,0.0
71621026,57077,0,1.0078125,-0.02734375,0.013671875,-0.013671875,0.0,0.0,0.0
71622276,57078,0,1.005859375,-0.0234375,0.015625,-0.0078125,0.0,0.0,0.0
71623527,57079,0,1.0078125,-0.029296875,0.01171875,-0.017578125,0.0,0.0,0.0
71624778,57080,0,1.001953125,-0.021484375,0.01953125,-0.001953125,0.0,0.0,0.0
71626029,57081,0,1.0,-0.03125,0.01171875,-0.01953125,0.0,0.0,0.0
71627280,57082,0,1.013671875,-0.025390625,0.013671875,-0.01171875,0.0,0.0,0.0
71628531,57083,0,1.001953125,-0.033203125,0.01953125,-0.013671875,0.0,0.0,0.0
71629783,57084,0,1.00390625,-0.0234375,0.015625,-0.0078125,0.0,0.0,0.0
71631034,57085,0,1.009765625,-0.02734375,0.015625,-0.01171875,0.0,0.0,0.0
71632286,57086,0,1.00390625,-0.025390625,0.017578125,-0.0078125,0.0,0.0,0.0
71633537,57087,0,1.005859375,-0.0234375,0.009765625,-0.013671875,0.0,0.0,0.0
71634789,57088,0,1.00390625,-0.029296875,0.01953125,-0.009765625,0.0,0.0,0.0
71636039,57089,0,1.00390625,-0.0234375,0.017578125,-0.005859375,0.0,0.0,0.0
71637289,57090,0,1.00390625,-0.025390625,0.01953125,-0.005859375,0.0,0.0,0.0
71638541,57091,0,1.0,-0.0234375,0.015625,-0.0078125,0.0,0.0,0.0
71639792,57092,0,0.998046875,-0.02734375,0.017578125,-0.009765625,0.0,0.0,0.0
71641044,57093,0,1.001953125,-0.0234375,0.01171875,-0.01171875,0.0,0.0,0.0
71642294,57094,0,1.001953125,-0.03125,0.0078125,-0.0234375,0.0,0.0,0.0
71643544,57095,0,1.0078125,-0.029296875,0.017578125,-0.01171875,0.0,0.0,0.0
71644795,57096,0,1.001953125,-0.03125,0.013671875,-0.017578125,0.0,0.0,0.0
71646045,57097,0,1.001953125,-0.03125,0.01953125,-0.01171875,0.0,0.0,0.0
71647295,57098,0,1.0,-0.02734375,0.01171875,-0.015625,0.0,0.0,0.0
71648546,57099,0,1.0078125,-0.0234375,0.021484375,-0.001953125,0.0,0.0,0.0
71649797,57100,0,1.0078125,-0.025390625,0.013671875,-0.01171875,0.0,0.0,0.0
71651048,57101,0,1.005859375,-0.0234375,0.01171875,-0.01171875,0.0,0.0,0.0
71652299,57102,0,1.00390625,-0.0234375,0.013671875,-0.009765625,0.0,0.0,0.0
71653550,57103,0,1.0,-0.0234375,0.021484375,-0.001953125,0.0,0.0,0.0
71654800,57104,0,0.998046875,-0.0234375,0.0234375,0.0,0.0,0.0,0.0
71656052,57105,0,1.01953125,-0.0234375,0.01953125,-0.00390625,0.0,0.0,0.0
71657303,57106,0,1.005859375,-0.02734375,0.01171875,-0.015625,0.0,0.0,0.0
71658554,57107,0,0.998046875,-0.02734375,0.015625,-0.01171875,0.0,0.0,0.0
71659805,57108,0,1.001953125,-0.029296875,0.01171875,-0.017578125,0.0,0.0,0.0
71661057,57109,0,1.001953125,-0.02734375,0.01953125,-0.0078125,0.0,0.0,0.0
71662308,57110,0,1.001953125,-0.02734375,0.021484375,-0.005859375,0.0,0.0,0.0
71663560,57111,0,1.00390625,-0.029296875,0.01171875,-0.017578125,0.0,0.0,0.0
71664811,57112,0,1.005859375,-0.02734375,0.017578125,-0.009765625,0.0,0.0,0.0
71666063,57113,0,1.001953125,-0.029296875,0.01171875,-0.017578125,0.0,0.0,0.0
71667314,57114,0,1.00390625,-0.0234375,0.017578125,-0.005859375,0.0,0.0,0.0
71668565,57115,0,1.001953125,-0.02734375,0.017578125,-0.009765625,0.0,0.0,0.0
71669816,57116,0,0.998046875,-0.02734375,0.021484375,-0.005859375,0.0,0.0,0.0
71671066,57117,0,1.00390625,-0.025390625,0.017578125,-0.0078125,0.0,0.0,0.0
71672318,57118,0,1.00390625,-0.029296875,0.015625,-0.013671875,0.0,0.0,0.0
71673569,57119,0,1.0,-0.029296875,0.017578125,-0.01171875,0.0,0.0,0.0
71674819,57120,0,1.00390625,-0.025390625,0.009765625,-0.015625,0.0,0.0,0.0
71676070,57121,0,1.001953125,-0.0234375,0.013671875,-0.009765625,0.0,0.0,0.0
71677321,57122,0,1.001953125,-0.0234375,0.0234375,0.0,0.0,0.0,0.0
71678572,57123,0,1.017578125,-0.0234375,0.013671875,-0.009765625,0.0,0.0,0.0
71679823,57124,0,1.0,-0.02734375,0.0078125,-0.01953125,0.0,0.0,0.0
71681074,57125,0,1.001953125,-0.03515625,0.0078125,-0.02734375,0.0,0.0,0.0
71682325,57126,0,1.009765625,-0.03125,0.01171875,-0.01953125,0.0,0.0,0.0
71683575,57127,0,1.009765625,-0.02734375,0.01953125,-0.0078125,0.0,0.0,0.0
71684825,57128,0,1.005859375,-0.02734375,0.015625,-0.01171875,0.0,0.0,0.0
71686076,57129,0,1.005859375,-0.02734375,0.015625,-0.01171875,0.0,0.0,0.0
71687326,57130,0,1.005859375,-0.021484375,0.013671875,-0.0078125,0.0,0.0,0.0
71688577,57131,0,1.001953125,-0.029296875,0.017578125,-0.01171875,0.0,0.0,0.0
71689828,57132,0,0.99609375,-0.02734375,0.017578125,-0.009765625,0.0,0.0,0.0
71691078,57133,0,1.001953125,-0.02734375,0.01953125,-0.0078125,0.0,0.0,0.0
71692329,57134,0,0.99609375,-0.025390625,0.017578125,-0.0078125,0.0,0.0,0.0
71693581,57135,0,1.005859375,-0.0234375,0.015625,-0.0078125,0.0,0.0,0.0
71694833,57136,0,1.009765625,-0.02734375,0.013671875,-0.013671875,0.0,0.0,0.0
71696083,57137,0,1.001953125,-0.025390625,0.017578125,-0.0078125,0.0,0.0,0.0
71697333,57138,0,1.00390625,-0.025390625,0.0078125,-0.017578125,0.0,0.0,0.0
71698584,57139,0,1.0,-0.025390625,0.017578125,-0.0078125,0.0,0.0,0.0
71699835,57140,0,1.00390625,-0.02734375,0.013671875,-0.013671875,0.0,0.0,0.0
71701085,57141,0,1.0,-0.0234375,0.01953125,-0.00390625,0.0,0.0,0.0
71702336,57142,0,1.005859375,-0.025390625,0.015625,-0.009765625,0.0,0.0,0.0
71703587,57143,0,1.00390625,-0.02734375,0.021484375,-0.005859375,0.0,0.0,0.0
71704838,57144,0,1.009765625,-0.01953125,0.017578125,-0.001953125,0.0,0.0,0.0
71706090,57145,0,0.99609375,-0.0234375,0.01953125,-0.00390625,0.0,0.0,0.0
71707341,57146,0,1.005859375,-0.03125,0.009765625,-0.021484375,0.0,0.0,0.0
71708592,57147,0,1.00390625,-0.02734375,0.01953125,-0.0078125,0.0,0.0,0.0
71709844,57148,0,1.001953125,-0.0234375,0.021484375,-0.001953125,0.0,0.0,0.0
71711095,57149,0,1.00390625,-0.025390625,0.009765625,-0.015625,0.0,0.0,0.0
71712346,57150,0,1.0078125,-0.025390625,0.009765625,-0.015625,0.0,0.0,0.0
71713597,57151,0,1.00390625,-0.02734375,0.013671875,-0.013671875,0.0,0.0,0.0
71714849,57152,0,1.00390625,-0.03125,0.013671875,-0.017578125,0.0,0.0,0.0
71716099,57153,0,1.00390625,-0.03125,0.015625,-0.015625,0.0,0.0,0.0
71717351,57154,0,1.0,-0.029296875,0.01171875,-0.017578125,0.0,0.0,0.0
71718602,57155,0,1.0,-0.025390625,0.013671875,-0.01171875,0.0,0.0,0.0
71719854,57156,0,1.001953125,-0.0234375,0.01171875,-0.01171875,0.0,0.0,0.0
71721104,57157,0,1.00390625,-0.03125,0.0078125,-0.0234375,0.0,0.0,0.0
71722354,57158,0,0.998046875,-0.029296875,0.015625,-0.013671875,0.0,0.0,0.0
71723605,57159,0,1.00390625,-0.025390625,0.01171875,-0.013671875,0.0,0.0,0.0
71724855,57160,0,1.00390625,-0.025390625,0.01171875,-0.013671875,0.0,0.0,0.0
71726107,57161,0,0.99609375,-0.03125,0.015625,-0.015625,0.0,0.0,0.0
71727358,57162,0,1.0078125,-0.029296875,0.009765625,-0.01953125,0.0,0.0,0.0
71728609,57163,0,0.99609375,-0.025390625,0.01953125,-0.005859375,0.0,0.0,0.0
71729859,57164,0,1.005859375,-0.02734375,0.01171875,-0.015625,0.0,0.0,0.0
71731111,57165,0,1.009765625,-0.025390625,0.01171875,-0.013671875,0.0,0.0,0.0
71732362,57166,0,1.017578125,-0.025390625,0.015625,-0.009765625,0.0,0.0,0.0
71733613,57167,0,1.0078125,-0.02734375,0.013671875,-0.013671875,0.0,0.0,0.0
71734865,57168,0,0.994140625,-0.02734375,0.021484375,-0.005859375,0.0,0.0,0.0
71736115,57169,0,0.998046875,-0.02734375,0.009765625,-0.017578125,0.0,0.0,0.0
71737365,57170,0,1.0,-0.029296875,0.015625,-0.013671875,0.0,0.0,0.0
71738617,57171,0,1.001953125,-0.025390625,0.009765625,-0.015625,0.0,0.0,0.0
71739867,57172,0,1.005859375,-0.021484375,0.015625,-0.005859375,0.0,0.0,0.0
71741118,57173,0,1.00390625,-0.029296875,0.013671875,-0.015625,0.0,0.0,0.0
71742369,57174,0,1.001953125,-0.0234375,0.017578125,-0.005859375,0.0,0.0,0.0
71743620,57175,0,1.005859375,-0.0234375,0.021484375,-0.001953125,0.0,0.0,0.0
71744871,57176,0,1.005859375,-0.021484375,0.01953125,-0.001953125,0.0,0.0,0.0
71746123,57177,0,1.0,-0.02734375,0.01953125,-0.0078125,0.0,0.0,0.0
71747374,57178,0,1.001953125,-0.02734375,0.015625,-0.01171875,0.0,0.0,0.0
71748624,57179,0,1.005859375,-0.025390625,0.01953125,-0.005859375,0.0,0.0,0.0
71749875,57180,0,1.0,-0.0234375,0.021484375,-0.001953125,0.0,0.0,0.0
71751125,57181,0,1.005859375,-0.021484375,0.0078125,-0.013671875,0.0,0.0,0.0
71752375,57182,0,1.005859375,-0.025390625,0.013671875,-0.01171875,0.0,0.0,0.0
71753626,57183,0,1.00390625,-0.0234375,0.013671875,-0.009765625,0.0,0.0,0.0
71754877,57184,0,1.0078125,-0.0234375,0.015625,-0.0078125,0.0,0.0,0.0
71756129,57185,0,1.005859375,-0.0234375,0.0078125,-0.015625,0.0,0.0,0.0
71757380,57186,0,1.001953125,-0.03125,0.0,-0.03125,0.0,0.0,0.0
71758630,57187,0,0.998046875,-0.02734375,0.015625,-0.01171875,0.0,0.0,0.0
71759881,57188,0,1.001953125,-0.025390625,0.005859375,-0.01953125,0.0,0.0,0.0
71761133,57189,0,1.0,-0.02734375,0.0,-0.02734375,0.0,0.0,0.0
71762384,57190,0,1.01171875,-0.0234375,0.017578125,-0.005859375,0.0,0.0,0.0
71763634,57191,0,1.001953125,-0.0234375,0.0234375,0.0,0.0,0.0,0.0
71764886,57192,0,1.0,-0.025390625,0.015625,-0.009765625,0.0,0.0,0.0
71766136,57193,0,1.0078125,-0.02734375,0.01953125,-0.0078125,0.0,0.0,0.0
71767386,57194,0,1.00390625,-0.025390625,0.015625,-0.009765625,0.0,0.0,0.0
71768638,57195,0,1.00390625,-0.025390625,0.013671875,-0.01171875,0.0,0.0,0.0
71769888,57196,0,1.001953125,-0.025390625,0.013671875,-0.01171875,0.0,0.0,0.0
71771139,57197,0,1.001953125,-0.029296875,0.01953125,-0.009765625,0.0,0.0,0.0
71772391,57198,0,1.001953125,-0.029296875,0.017578125,-0.01171875,0.0,0.0,0.0
71773641,57199,0,1.005859375,-0.0234375,0.015625,-0.0078125,0.0,0.0,0.0
71774892,57200,0,1.0078125,-0.02734375,0.0078125,-0.01953125,0.0,0.0,0.0
71776142,57201,0,1.001953125,-0.0234375,0.017578125,-0.005859375,0.0,0.0,0.0
71777393,57202,0,1.00390625,-0.029296875,0.01953125,-0.009765625,0.0,0.0,0.0
71778645,57203,0,1.001953125,-0.02734375,0.015625,-0.01171875,0.0,0.0,0.0
71779895,57204,0,1.00390625,-0.02734375,0.017578125,-0.009765625,0.0,0.0,0.0
71781147,57205,0,1.0,-0.029296875,0.013671875,-0.015625,0.0,0.0,0.0
71782397,57206,0,1.001953125,-0.025390625,0.01171875,-0.013671875,0.0,0.0,0.0
71783649,57207,0,0.99609375,-0.029296875,0.017578125,-0.01171875,0.0,0.0,0.0
71784899,57208,0,1.005859375,-0.02734375,0.015625,-0.01171875,0.0,0.0,0.0
71786149,57209,0,1.013671875,-0.025390625,0.01171875,-0.013671875,0.0,0.0,0.0
71787399,57210,0,0.998046875,-0.02734375,0.017578125,-0.009765625,0.0,0.0,0.0
71788650,57211,0,1.001953125,-0.025390625,0.01953125,-0.005859375,0.0,0.0,0.0
71789902,57212,0,1.005859375,-0.025390625,0.01953125,-0.005859375,0.0,0.0,0.0
71791153,57213,0,1.00390625,-0.025390625,0.013671875,-0.01171875,0.0,0.0,0.0
71792404,57214,0,0.99609375,-0.029296875,0.013671875,-0.015625,0.0,0.0,0.0
71793654,57215,0,1.005859375,-0.029296875,0.01953125,-0.009765625,0.0,0.0,0.0
71794904,57216,0,1.005859375,-0.02734375,0.015625,-0.01171875,0.0,0.0,0.0
71796155,57217,0,1.005859375,-0.029296875,0.017578125,-0.01171875,0.0,0.0,0.0
71797407,57218,0,1.0,-0.029296875,0.01171875,-0.017578125,0.0,0.0,0.0
71798657,57219,0,1.00390625,-0.03125,0.017578125,-0.013671875,0.0,0.0,0.0
71799909,57220,0,1.005859375,-0.029296875,0.015625,-0.013671875,0.0,0.0,0.0
71801159,57221,0,1.00390625,-0.03125,0.013671875,-0.017578125,0.0,0.0,0.0
71802409,57222,0,1.005859375,-0.02734375,0.017578125,-0.009765625,0.0,0.0,0.0
71803661,57223,0,1.00390625,-0.02734375,0.013671875,-0.013671875,0.0,0.0,0.0
71804911,57224,0,1.009765625,-0.02734375,0.015625,-0.01171875,0.0,0.0,0.0
71806161,57225,0,1.009765625,-0.025390625,0.01171875,-0.013671875,0.0,0.0,0.0
71807411,57226,0,1.0078125,-0.02734375,0.009765625,-0.017578125,0.0,0.0,0.0
71808663,57227,0,1.00390625,-0.033203125,0.01171875,-0.021484375,0.0,0.0,0.0
71809913,57228,0,1.00390625,-0.029296875,0.013671875,-0.015625,0.0,0.0,0.0
71811164,57229,0,1.005859375,-0.025390625,0.01171875,-0.013671875,0.0,0.0,0.0
71812415,57230,0,1.005859375,-0.03125,0.01171875,-0.01953125,0.0,0.0,0.0
71813666,57231,0,0.998046875,-0.02734375,0.017578125,-0.009765625,0.0,0.0,0.0
71814916,57232,0,1.0,-0.0234375,0.015625,-0.0078125,0.0,0.0,0.0
71816167,57233,0,1.0,-0.025390625,0.013671875,-0.01171875,0.0,0.0,0.0
71817417,57234,0,1.009765625,-0.025390625,0.01171875,-0.013671875,0.0,0.0,0.0
71818668,57235,0,1.001953125,-0.02734375,0.017578125,-0.009765625,0.0,0.0,0.0
71819920,57236,0,1.0,-0.029296875,0.01953125,-0.009765625,0.0,0.0,0.0
71821171,57237,0,0.998046875,-0.03125,0.015625,-0.015625,0.0,0.0,0.0
71822421,57238,0,1.005859375,-0.025390625,0.017578125,-0.0078125,0.0,0.0,0.0
71823672,57239,0,1.0078125,-0.02734375,0.017578125,-0.009765625,0.0,0.0,0.0
71824924,57240,0,1.00390625,-0.02734375,0.009765625,-0.017578125,0.0,0.0,0.0
71826174,57241,0,1.005859375,-0.025390625,0.01953125,-0.005859375,0.0,0.0,0.0
71827425,57242,0,1.0,-0.02734375,0.013671875,-0.013671875,0.0,0.0,0.0
71828677,57243,0,1.005859375,-0.0234375,0.01953125,-0.00390625,0.0,0.0,0.0
71829927,57244,0,1.0,-0.025390625,0.015625,-0.009765625,0.0,0.0,0.0
71831177,57245,0,1.005859375,-0.02734375,0.017578125,-0.009765625,0.0,0.0,0.0
71832429,57246,0,1.0,-0.025390625,0.015625,-0.009765625,0.0,0.0,0.0
71833679,57247,0,1.0078125,-0.02734375,0.017578125,-0.009765625,0.0,0.0,0.0
71834931,57248,0,1.00390625,-0.02734375,0.01953125,-0.0078125,0.0,0.0,0.0
71836181,57249,0,1.0078125,-0.025390625,0.013671875,-0.01171875,0.0,0.0,0.0
71837431,57250,0,1.00390625,-0.03125,0.0078125,-0.0234375,0.0,0.0,0.0
71838683,57251,0,1.0,-0.03125,0.015625,-0.015625,0.0,0.0,0.0
71839933,57252,0,1.005859375,-0.021484375,0.015625,-0.005859375,0.0,0.0,0.0
71841183,57253,0,1.013671875,-0.02734375,0.0078125,-0.01953125,0.0,0.0,0.0
71842434,57254,0,1.0078125,-0.025390625,0.017578125,-0.0078125,0.0,0.0,0.0
71843685,57255,0,1.00390625,-0.02734375,0.009765625,-0.017578125,0.0,0.0,0.0
71844936,57256,0,1.009765625,-0.02734375,0.013671875,-0.013671875,0.0,0.0,0.0
71846186,57257,0,1.0,-0.03125,0.017578125,-0.013671875,0.0,0.0,0.0
71847437,57258,0,1.001953125,-0.02734375,0.01953125,-0.0078125,0.0,0.0,0.0
71848687,57259,0,1.001953125,-0.029296875,0.01171875,-0.017578125,0.0,0.0,0.0
71849937,57260,0,1.001953125,-0.02734375,0.017578125,-0.009765625,0.0,0.0,0.0
71851188,57261,0,1.0078125,-0.025390625,0.01171875,-0.013671875,0.0,0.0,0.0
71852440,57262,0,1.00390625,-0.02734375,0.01953125,-0.0078125,0.0,0.0,0.0
71853690,57263,0,1.001953125,-0.0234375,0.01171875,-0.01171875,0.0,0.0,0.0
71854942,57264,0,1.0078125,-0.02734375,0.015625,-0.01171875,0.0,0.0,0.0
71856193,57265,0,1.005859375,-0.025390625,0.017578125,-0.0078125,0.0,0.0,0.0
71857445,57266,0,1.001953125,-0.029296875,0.017578125,-0.01171875,0.0,0.0,0.0
71858695,57267,0,1.001953125,-0.02734375,0.01953125,-0.0078125,0.0,0.0,0.0
71859947,57268,0,1.005859375,-0.025390625,0.017578125,-0.0078125,0.0,0.0,0.0
71861198,57269,0,0.99609375,-0.02734375,0.013671875,-0.013671875,0.0,0.0,0.0
71862450,57270,0,1.00390625,-0.029296875,0.015625,-0.013671875,0.0,0.0,0.0
71863700,57271,0,1.001953125,-0.02734375,0.009765625,-0.017578125,0.0,0.0,0.0
71864952,57272,0,1.001953125,-0.025390625,0.017578125,-0.0078125,0.0,0.0,0.0
71866203,57273,0,1.001953125,-0.02734375,0.01953125,-0.0078125,0.0,0.0,0.0
71867454,57274,0,1.0078125,-0.01953125,0.01171875,-0.0078125,0.0,0.0,0.0
71868705,57275,0,1.00390625,-0.02734375,0.015625,-0.01171875,0.0,0.0,0.0
71869957,57276,0,1.001953125,-0.01953125,0.015625,-0.00390625,0.0,0.0,0.0
71871207,57277,0,1.0078125,-0.025390625,0.01953125,-0.005859375,0.0,0.0,0.0
71872459,57278,0,1.009765625,-0.02734375,0.015625,-0.01171875,0.0,0.0,0.0
71873709,57279,0,1.005859375,-0.0234375,0.015625,-0.0078125,0.0,0.0,0.0
71874959,57280,0,1.005859375,-0.0234375,0.017578125,-0.005859375,0.0,0.0,0.0
71876209,57281,0,1.005859375,-0.02734375,0.01171875,-0.015625,0.0,0.0,0.0
71877459,57282,0,1.001953125,-0.0234375,0.015625,-0.0078125,0.0,0.0,0.0
71878711,57283,0,1.0078125,-0.03125,0.013671875,-0.017578125,0.0,0.0,0.0
71879961,57284,0,1.005859375,-0.025390625,0.017578125,-0.0078125,0.0,0.0,0.0
71881213,57285,0,0.998046875,-0.029296875,0.017578125,-0.01171875,0.0,0.0,0.0
71882464,57286,0,0.998046875,-0.03125,0.017578125,-0.013671875,0.0,0.0,0.0
71883715,57287,0,0.998046875,-0.025390625,0.013671875,-0.01171875,0.0,0.0,0.0
71884966,57288,0,1.00390625,-0.029296875,0.015625,-0.013671875,0.0,0.0,0.0
71886216,57289,0,0.998046875,-0.029296875,0.01171875,-0.017578125,0.0,0.0,0.0
71887467,57290,0,1.001953125,-0.025390625,0.01953125,-0.005859375,0.0,0.0,0.0
71888718,57291,0,0.998046875,-0.0234375,0.005859375,-0.017578125,0.0,0.0,0.0
71889968,57292,0,1.001953125,-0.0234375,0.005859375,-0.017578125,0.0,0.0,0.0
71891219,57293,0,1.0,-0.017578125,0.009765625,-0.0078125,0.0,0.0,0.0
71892470,57294,0,1.005859375,-0.029296875,0.009765625,-0.01953125,0.0,0.0,0.0
71893721,57295,0,1.0078125,-0.025390625,0.013671875,-0.01171875,0.0,0.0,0.0
71894971,57296,0,1.015625,-0.02734375,0.009765625,-0.017578125,0.0,0.0,0.0
71896223,57297,0,0.994140625,-0.02734375,0.0234375,-0.00390625,0.0,0.0,0.0
71897473,57298,0,1.0078125,-0.029296875,0.015625,-0.013671875,0.0,0.0,0.0
71898723,57299,0,1.0,-0.0234375,0.005859375,-0.017578125,0.0,0.0,0.0
71899975,57300,0,0.998046875,-0.025390625,0.017578125,-0.0078125,0.0,0.0,0.0
71901226,57301,0,1.001953125,-0.029296875,0.017578125,-0.01171875,0.0,0.0,0.0
71902476,57302,0,1.001953125,-0.025390625,0.013671875,-0.01171875,0.0,0.0,0.0
71903728,57303,0,1.0078125,-0.025390625,0.01171875,-0.013671875,0.0,0.0,0.0
71904979,57304,0,1.009765625,-0.029296875,0.013671875,-0.015625,0.0,0.0,0.0
71906229,57305,0,1.001953125,-0.025390625,0.013671875,-0.01171875,0.0,0.0,0.0
71907481,57306,0,1.001953125,-0.02734375,0.017578125,-0.009765625,0.0,0.0,0.0
71908731,57307,0,1.00390625,-0.025390625,0.017578125,-0.0078125,0.0,0.0,0.0
71909981,57308,0,1.001953125,-0.029296875,0.01953125,-0.009765625,0.0,0.0,0.0
71911232,57309,0,1.0078125,-0.029296875,0.015625,-0.013671875,0.0,0.0,0.0
71912483,57310,0,1.005859375,-0.025390625,0.017578125,-0.0078125,0.0,0.0,0.0
71913734,57311,0,1.0078125,-0.025390625,0.01953125,-0.005859375,0.0,0.0,0.0
71914986,57312,0,1.001953125,-0.0234375,0.013671875,-0.009765625,0.0,0.0,0.0
71916236,57313,0,1.00390625,-0.025390625,0.01953125,-0.005859375,0.0,0.0,0.0
71917486,57314,0,1.005859375,-0.03125,0.0078125,-0.0234375,0.0,0.0,0.0
71918737,57315,0,1.0078125,-0.03125,0.0078125,-0.0234375,0.0,0.0,0.0
71919987,57316,0,1.001953125,-0.025390625,0.013671875,-0.01171875,0.0,0.0,0.0
71921238,57317,0,1.001953125,-0.029296875,0.01953125,-0.009765625,0.0,0.0,0.0
71922489,57318,0,1.0078125,-0.02734375,0.015625,-0.01171875,0.0,0.0,0.0
71923740,57319,0,1.00390625,-0.029296875,0.015625,-0.013671875,0.0,0.0,0.0
71924991,57320,0,1.0078125,-0.025390625,0.009765625,-0.015625,0.0,0.0,0.0
71926241,57321,0,1.001953125,-0.025390625,0.015625,-0.009765625,0.0,0.0,0.0
71927492,57322,0,1.0,-0.029296875,0.01953125,-0.009765625,0.0,0.0,0.0
71928744,57323,0,1.001953125,-0.025390625,0.009765625,-0.015625,0.0,0.0,0.0
71929994,57324,0,1.005859375,-0.029296875,0.01171875,-0.017578125,0.0,0.0,0.0
71931245,57325,0,1.0078125,-0.02734375,0.013671875,-0.013671875,0.0,0.0,0.0
71932496,57326,0,1.005859375,-0.0234375,0.017578125,-0.005859375,0.0,0.0,0.0
71933747,57327,0,1.001953125,-0.03125,0.013671875,-0.017578125,0.0,0.0,0.0
71934998,57328,0,1.001953125,-0.025390625,0.0234375,-0.001953125,0.0,0.0,0.0
71936249,57329,0,1.001953125,-0.02734375,0.021484375,-0.005859375,0.0,0.0,0.0
71937499,57330,0,1.001953125,-0.02734375,0.017578125,-0.009765625,0.0,0.0,0.0
71938751,57331,0,1.0,-0.0234375,0.015625,-0.0078125,0.0,0.0,0.0
71940002,57332,0,1.001953125,-0.029296875,0.01953125,-0.009765625,0.0,0.0,0.0
71941253,57333,0,1.001953125,-0.029296875,0.013671875,-0.015625,0.0,0.0,0.0
71942503,57334,0,1.009765625,-0.0234375,0.015625,-0.0078125,0.0,0.0,0.0
71943755,57335,0,0.998046875,-0.02734375,0.015625,-0.01171875,0.0,0.0,0.0
71945005,57336,0,1.005859375,-0.029296875,0.017578125,-0.01171875,0.0,0.0,0.0
71946256,57337,0,1.0078125,-0.03515625,0.017578125,-0.017578125,0.0,0.0,0.0
71947506,57338,0,1.0,-0.021484375,0.017578125,-0.00390625,0.0,0.0,0.0
71948757,57339,0,1.0,-0.02734375,0.015625,-0.01171875,0.0,0.0,0.0
71950008,57340,0,1.001953125,-0.02734375,0.01953125,-0.0078125,0.0,0.0,0.0
71951258,57341,0,1.0078125,-0.029296875,0.01953125,-0.009765625,0.0,0.0,0.0
71952508,57342,0,0.990234375,-0.02734375,0.01953125,-0.0078125,0.0,0.0,0.0
71953759,57343,0,1.001953125,-0.02734375,0.013671875,-0.013671875,0.0,0.0,0.0
71955009,57344,0,1.00390625,-0.029296875,0.01953125,-0.009765625,0.0,0.0,0.0
71956259,57345,0,1.005859375,-0.02734375,0.01953125,-0.0078125,0.0,0.0,0.0
71957510,57346,0,1.00390625,-0.02734375,0.015625,-0.01171875,0.0,0.0,0.0
71958762,57347,0,1.0078125,-0.02734375,0.017578125,-0.009765625,0.0,0.0,0.0
71960012,57348,0,1.005859375,-0.025390625,0.009765625,-0.015625,0.0,0.0,0.0
71961271,57349,0,1.001953125,-0.021484375,0.017578125,-0.00390625,0.0,0.0,0.0
71962521,57350,0,1.00390625,-0.0234375,0.017578125,-0.005859375,0.0,0.0,0.0
71963773,57351,0,0.998046875,-0.021484375,0.01953125,-0.001953125,0.0,0.0,0.0
71965023,57352,0,0.99609375,-0.02734375,0.017578125,-0.009765625,0.0,0.0,0.0
71966274,57353,0,1.001953125,-0.021484375,0.01953125,-0.001953125,0.0,0.0,0.0
71967525,57354,0,1.00390625,-0.025390625,0.015625,-0.009765625,0.0,0.0,0.0
71968776,57355,0,1.0,-0.0234375,0.017578125,-0.005859375,0.0,0.0,0.0
71970026,57356,0,1.00390625,-0.0234375,0.0078125,-0.015625,0.0,0.0,0.0
71971276,57357,0,1.001953125,-0.025390625,0.01953125,-0.005859375,0.0,0.0,0.0
71972527,57358,0,1.00390625,-0.021484375,0.00390625,-0.017578125,0.0,0.0,0.0
71973778,57359,0,1.013671875,-0.02734375,0.0234375,-0.00390625,0.0,0.0,0.0
71975029,57360,0,1.013671875,-0.0234375,0.01953125,-0.00390625,0.0,0.0,0.0
71976280,57361,0,1.01171875,-0.021484375,0.021484375,0.0,0.0,0.0,0.0
71977531,57362,0,1.00390625,-0.025390625,0.0078125,-0.017578125,0.0,0.0,0.0
71978783,57363,0,0.998046875,-0.02734375,0.0078125,-0.01953125,0.0,0.0,0.0
71980034,57364,0,1.0,-0.0234375,0.015625,-0.0078125,0.0,0.0,0.0
71981286,57365,0,0.998046875,-0.02734375,0.021484375,-0.005859375,0.0,0.0,0.0
71982537,57366,0,1.0078125,-0.0234375,0.01953125,-0.00390625,0.0,0.0,0.0
71983789,57367,0,1.001953125,-0.0234375,0.013671875,-0.009765625,0.0,0.0,0.0
71985039,57368,0,0.998046875,-0.025390625,0.01953125,-0.005859375,0.0,0.0,0.0
71986289,57369,0,1.001953125,-0.029296875,0.013671875,-0.015625,0.0,0.0,0.0
71987541,57370,0,1.00390625,-0.021484375,0.015625,-0.005859375,0.0,0.0,0.0
71988792,57371,0,1.0,-0.029296875,0.01171875,-0.017578125,0.0,0.0,0.0
71990044,57372,0,1.001953125,-0.02734375,0.01171875,-0.015625,0.0,0.0,0.0
71991294,57373,0,0.998046875,-0.0234375,0.017578125,-0.005859375,0.0,0.0,0.0
71992544,57374,0,1.00390625,-0.025390625,0.015625,-0.009765625,0.0,0.0,0.0
71993795,57375,0,1.001953125,-0.0234375,0.017578125,-0.005859375,0.0,0.0,0.0
71995045,57376,0,0.99609375,-0.0234375,0.017578125,-0.005859375,0.0,0.0,0.0
71996295,57377,0,1.001953125,-0.029296875,0.017578125,-0.01171875,0.0,0.0,0.0
71997546,57378,0,1.005859375,-0.025390625,0.017578125,-0.0078125,0.0,0.0,0.0
71998797,57379,0,1.00390625,-0.03125,0.02734375,-0.00390625,0.0,0.0,0.0
72000048,57380,0,1.00390625,-0.025390625,0.01171875,-0.013671875,0.0,0.0,0.0
72001299,57381,0,1.001953125,-0.0234375,0.013671875,-0.009765625,0.0,0.0,0.0
72002550,57382,0,1.005859375,-0.025390625,0.025390625,0.0,0.0,0.0,0.0
72003800,57383,0,1.005859375,-0.02734375,0.009765625,-0.017578125,0.0,0.0,0.0
72005052,57384,0,1.0,-0.01953125,0.015625,-0.00390625,0.0,0.0,0.0
72006303,57385,0,0.998046875,-0.02734375,0.009765625,-0.017578125,0.0,0.0,0.0
72007554,57386,0,1.009765625,-0.0234375,0.013671875,-0.009765625,0.0,0.0,0.0
72008805,57387,0,1.005859375,-0.021484375,0.00390625,-0.017578125,0.0,0.0,0.0
72010057,57388,0,1.005859375,-0.025390625,0.01953125,-0.005859375,0.0,0.0,0.0
72011308,57389,0,1.0,-0.02734375,0.013671875,-0.013671875,0.0,0.0,0.0
72012560,57390,0,0.998046875,-0.029296875,0.017578125,-0.01171875,0.0,0.0,0.0
72013811,57391,0,1.005859375,-0.02734375,0.015625,-0.01171875,0.0,0.0,0.0
72015063,57392,0,1.0,-0.025390625,0.009765625,-0.015625,0.0,0.0,0.0
72016314,57393,0,1.00390625,-0.02734375,0.01171875,-0.015625,0.0,0.0,0.0
72017565,57394,0,1.0,-0.029296875,0.009765625,-0.01953125,0.0,0.0,0.0
72018816,57395,0,1.001953125,-0.03125,0.013671875,-0.017578125,0.0,0.0,0.0
72020066,57396,0,1.0078125,-0.029296875,0.001953125,-0.02734375,0.0,0.0,0.0
72021318,57397,0,1.0078125,-0.03125,0.009765625,-0.021484375,0.0,0.0,0.0
72022569,57398,0,1.0078125,-0.0234375,0.017578125,-0.005859375,0.0,0.0,0.0
72023819,57399,0,1.00390625,-0.025390625,0.013671875,-0.01171875,0.0,0.0,0.0
72025070,57400,0,1.00390625,-0.029296875,0.015625,-0.013671875,0.0,0.0,0.0
72026321,57401,0,0.998046875,-0.02734375,0.013671875,-0.013671875,0.0,0.0,0.0
72027572,57402,0,1.005859375,-0.02734375,0.015625,-0.01171875,0.0,0.0,0.0
72028823,57403,0,0.994140625,-0.02734375,0.015625,-0.01171875,0.0,0.0,0.0
72030074,57404,0,1.005859375,-0.029296875,0.015625,-0.013671875,0.0,0.0,0.0
72031325,57405,0,1.0078125,-0.025390625,0.017578125,-0.0078125,0.0,0.0,0.0
72032575,57406,0,1.009765625,-0.025390625,0.017578125,-0.0078125,0.0,0.0,0.0
72033825,57407,0,1.001953125,-0.025390625,0.013671875,-0.01171875,0.0,0.0,0.0
72035076,57408,0,1.005859375,-0.02734375,0.013671875,-0.013671875,0.0,0.0,0.0
72036326,57409,0,1.0078125,-0.025390625,0.017578125,-0.0078125,0.0,0.0,0.0
72037577,57410,0,1.005859375,-0.025390625,0.013671875,-0.01171875,0.0,0.0,0.0
72038828,57411,0,1.00390625,-0.029296875,0.015625,-0.013671875,0.0,0.0,0.0
72040078,57412,0,1.005859375,-0.02734375,0.013671875,-0.013671875,0.0,0.0,0.0
72041329,57413,0,1.009765625,-0.025390625,0.013671875,-0.01171875,0.0,0.0,0.0
72042581,57414,0,1.001953125,-0.02734375,0.017578125,-0.009765625,0.0,0.0,0.0
72043833,57415,0,1.00390625,-0.02734375,0.017578125,-0.009765625,0.0,0.0,0.0
72045083,57416,0,1.00390625,-0.03125,0.01953125,-0.01171875,0.0,0.0,0.0
72046333,57417,0,1.001953125,-0.029296875,0.01953125,-0.009765625,0.0,0.0,0.0
72047584,57418,0,1.001953125,-0.02734375,0.01953125,-0.0078125,0.0,0.0,0.0
72048835,57419,0,1.00390625,-0.029296875,0.013671875,-0.015625,0.0,0.0,0.0
72050085,57420,0,1.005859375,-0.03125,0.01953125,-0.01171875,0.0,0.0,0.0
72051336,57421,0,1.0078125,-0.02734375,0.013671875,-0.013671875,0.0,0.0,0.0
72052587,57422,0,1.005859375,-0.02734375,0.01953125,-0.0078125,0.0,0.0,0.0
