t_us,frame_id,sensor_id,accX,accY,accZ,acc_sum_YZ,magX,magY,magZ
35990486,28593,0,1.0078125,-0.03125,0.0234375,-0.0078125,0.0,0.0,0.0
35991737,28594,0,1.001953125,-0.025390625,0.01953125,-0.005859375,0.0,0.0,0.0
35992988,28595,0,1.00390625,-0.029296875,0.01953125,-0.009765625,0.0,0.0,0.0
35994238,28596,0,1.005859375,-0.03125,0.009765625,-0.021484375,0.0,0.0,0.0
35995489,28597,0,1.005859375,-0.029296875,0.021484375,-0.0078125,0.0,0.0,0.0
35996740,28598,0,1.001953125,-0.02734375,0.015625,-0.01171875,0.0,0.0,0.0
35997991,28599,0,0.998046875,-0.02734375,0.013671875,-0.013671875,0.0,0.0,0.0
35999241,28600,0,1.005859375,-0.029296875,0.017578125,-0.01171875,0.0,0.0,0.0
36000492,28601,0,1.005859375,-0.029296875,0.021484375,-0.0078125,0.0,0.0,0.0
36001744,28602,0,1.00390625,-0.029296875,0.01953125,-0.009765625,0.0,0.0,0.0
36002994,28603,0,1.0,-0.03125,0.01953125,-0.01171875,0.0,0.0,0.0
36004245,28604,0,1.0,-0.029296875,0.017578125,-0.01171875,0.0,0.0,0.0
36005496,28605,0,1.001953125,-0.029296875,0.01171875,-0.017578125,0.0,0.0,0.0
36006747,28606,0,1.00390625,-0.03515625,0.021484375,-0.013671875,0.0,0.0,0.0
36007998,28607,0,1.00390625,-0.03515625,0.015625,-0.01953125,0.0,0.0,0.0
36009249,28608,0,1.0078125,-0.029296875,0.01953125,-0.009765625,0.0,0.0,0.0
36010499,28609,0,1.00390625,-0.033203125,0.013671875,-0.01953125,0.0,0.0,0.0
36011751,28610,0,1.00390625,-0.029296875,0.015625,-0.013671875,0.0,0.0,0.0
36013002,28611,0,1.009765625,-0.03515625,0.021484375,-0.013671875,0.0,0.0,0.0
36014253,28612,0,1.0,-0.033203125,0.017578125,-0.015625,0.0,0.0,0.0
36015503,28613,0,0.99609375,-0.029296875,0.01953125,-0.009765625,0.0,0.0,0.0
36016755,28614,0,0.998046875,-0.033203125,0.009765625,-0.0234375,0.0,0.0,0.0
36018005,28615,0,1.009765625,-0.02734375,0.01953125,-0.0078125,0.0,0.0,0.0
36019256,28616,0,1.009765625,-0.033203125,0.021484375,-0.01171875,0.0,0.0,0.0
36020506,28617,0,1.009765625,-0.02734375,0.01953125,-0.0078125,0.0,0.0,0.0
36021757,28618,0,1.00390625,-0.03125,0.01953125,-0.01171875,0.0,0.0,0.0
36023008,28619,0,1.00390625,-0.029296875,0.021484375,-0.0078125,0.0,0.0,0.0
36024258,28620,0,0.994140625,-0.03125,0.015625,-0.015625,0.0,0.0,0.0
36025508,28621,0,1.0,-0.03125,0.015625,-0.015625,0.0,0.0,0.0
36026759,28622,0,1.00390625,-0.033203125,0.017578125,-0.015625,0.0,0.0,0.0
36028009,28623,0,1.0,-0.03515625,0.017578125,-0.017578125,0.0,0.0,0.0
36029259,28624,0,1.001953125,-0.03125,0.01953125,-0.01171875,0.0,0.0,0.0
36030510,28625,0,1.00390625,-0.03125,0.021484375,-0.009765625,0.0,0.0,0.0
36031762,28626,0,1.005859375,-0.033203125,0.01171875,-0.021484375,0.0,0.0,0.0
36033012,28627,0,1.009765625,-0.03125,0.015625,-0.015625,0.0,0.0,0.0
36034271,28628,0,1.001953125,-0.033203125,0.01953125,-0.013671875,0.0,0.0,0.0
36035521,28629,0,1.0,-0.033203125,0.021484375,-0.01171875,0.0,0.0,0.0
36036773,28630,0,1.0,-0.03515625,0.013671875,-0.021484375,0.0,0.0,0.0
36038023,28631,0,1.005859375,-0.037109375,0.013671875,-0.0234375,0.0,0.0,0.0
36039274,28632,0,1.005859375,-0.03125,0.021484375,-0.009765625,0.0,0.0,0.0
36040525,28633,0,1.0078125,-0.02734375,0.017578125,-0.009765625,0.0,0.0,0.0
36041776,28634,0,1.001953125,-0.033203125,0.013671875,-0.01953125,0.0,0.0,0.0
36043026,28635,0,1.001953125,-0.03515625,0.01953125,-0.015625,0.0,0.0,0.0
36044276,28636,0,1.005859375,-0.03125,0.009765625,-0.021484375,0.0,0.0,0.0
36045527,28637,0,0.998046875,-0.033203125,0.01953125,-0.013671875,0.0,0.0,0.0
36046778,28638,0,1.001953125,-0.03125,0.01953125,-0.01171875,0.0,0.0,0.0
36048029,28639,0,1.0,-0.029296875,0.0234375,-0.005859375,0.0,0.0,0.0
36049280,28640,0,1.001953125,-0.029296875,0.01953125,-0.009765625,0.0,0.0,0.0
36050531,28641,0,0.998046875,-0.03125,0.0234375,-0.0078125,0.0,0.0,0.0
36051783,28642,0,1.001953125,-0.03125,0.017578125,-0.013671875,0.0,0.0,0.0
36053034,28643,0,1.005859375,-0.029296875,0.017578125,-0.01171875,0.0,0.0,0.0
36054286,28644,0,1.005859375,-0.037109375,0.017578125,-0.01953125,0.0,0.0,0.0
36055537,28645,0,1.001953125,-0.033203125,0.021484375,-0.01171875,0.0,0.0,0.0
36056789,28646,0,1.0,-0.03125,0.01953125,-0.01171875,0.0,0.0,0.0
36058039,28647,0,1.0078125,-0.033203125,0.0234375,-0.009765625,0.0,0.0,0.0
36059289,28648,0,1.005859375,-0.029296875,0.021484375,-0.0078125,0.0,0.0,0.0
36060541,28649,0,1.001953125,-0.03515625,0.017578125,-0.017578125,0.0,0.0,0.0
36061792,28650,0,1.005859375,-0.03125,0.017578125,-0.013671875,0.0,0.0,0.0
36063044,28651,0,1.0,-0.029296875,0.01953125,-0.009765625,0.0,0.0,0.0
36064294,28652,0,1.001953125,-0.029296875,0.021484375,-0.0078125,0.0,0.0,0.0
36065544,28653,0,1.0,-0.033203125,0.015625,-0.017578125,0.0,0.0,1.4752198766889892e+29
36068045,28655,0,1.0078125,-0.03125,0.0234375,-0.0078125,0.0,0.0,0.0
36069295,28656,0,0.998046875,-0.03515625,0.00390625,-0.03125,0.0,0.0,0.0
36070546,28657,0,1.005859375,-0.033203125,0.017578125,-0.015625,0.0,0.0,0.0
36071797,28658,0,0.99609375,-0.03125,0.01953125,-0.01171875,0.0,0.0,0.0
36073048,28659,0,1.0,-0.03125,0.0234375,-0.0078125,0.0,0.0,0.0
36074299,28660,0,1.0,-0.029296875,0.015625,-0.013671875,0.0,0.0,0.0
36075550,28661,0,1.0,-0.03125,0.0234375,-0.0078125,0.0,0.0,0.0
36076800,28662,0,0.99609375,-0.029296875,0.017578125,-0.01171875,0.0,0.0,0.0
36078052,28663,0,0.998046875,-0.03125,0.017578125,-0.013671875,0.0,0.0,0.0
36079303,28664,0,1.00390625,-0.03515625,0.021484375,-0.013671875,0.0,0.0,0.0
36080554,28665,0,0.99609375,-0.033203125,0.0234375,-0.009765625,0.0,0.0,0.0
36081805,28666,0,0.998046875,-0.02734375,0.017578125,-0.009765625,0.0,0.0,0.0
36083057,28667,0,1.0078125,-0.033203125,0.013671875,-0.01953125,0.0,0.0,0.0
36084308,28668,0,1.009765625,-0.03515625,0.017578125,-0.017578125,0.0,0.0,0.0
36085560,28669,0,1.009765625,-0.03125,0.021484375,-0.009765625,0.0,0.0,0.0
36086811,28670,0,1.005859375,-0.033203125,0.021484375,-0.01171875,0.0,0.0,0.0
36088063,28671,0,0.99609375,-0.029296875,0.013671875,-0.015625,0.0,0.0,0.0
36089314,28672,0,1.0,-0.029296875,0.01953125,-0.009765625,0.0,0.0,0.0
36090565,28673,0,1.00390625,-0.02734375,0.017578125,-0.009765625,0.0,0.0,0.0
36091816,28674,0,1.00390625,-0.033203125,0.01171875,-0.021484375,0.0,0.0,0.0
36093066,28675,0,1.005859375,-0.029296875,0.017578125,-0.01171875,0.0,0.0,0.0
36094318,28676,0,0.998046875,-0.03125,0.013671875,-0.017578125,0.0,0.0,0.0
36095569,28677,0,0.99609375,-0.029296875,0.015625,-0.013671875,0.0,0.0,0.0
36096819,28678,0,1.0078125,-0.03125,0.01953125,-0.01171875,0.0,0.0,0.0
36098070,28679,0,1.001953125,-0.029296875,0.01953125,-0.009765625,0.0,0.0,0.0
36099321,28680,0,1.005859375,-0.033203125,0.015625,-0.017578125,0.0,0.0,0.0
36100572,28681,0,1.005859375,-0.03125,0.01953125,-0.01171875,0.0,0.0,0.0
36101823,28682,0,1.005859375,-0.03125,0.009765625,-0.021484375,0.0,0.0,0.0
36103074,28683,0,1.001953125,-0.029296875,0.013671875,-0.015625,0.0,0.0,0.0
36104325,28684,0,1.0078125,-0.02734375,0.01171875,-0.015625,0.0,0.0,0.0
36105575,28685,0,1.001953125,-0.02734375,0.01953125,-0.0078125,0.0,0.0,0.0
36106825,28686,0,1.001953125,-0.03125,0.017578125,-0.013671875,0.0,0.0,0.0
36108076,28687,0,0.994140625,-0.033203125,0.01953125,-0.013671875,0.0,0.0,0.0
36109326,28688,0,1.0078125,-0.03125,0.017578125,-0.013671875,0.0,0.0,0.0
36110577,28689,0,1.0,-0.03125,0.013671875,-0.017578125,0.0,0.0,0.0
36111828,28690,0,1.00390625,-0.03125,0.017578125,-0.013671875,0.0,0.0,0.0
36113078,28691,0,1.001953125,-0.033203125,0.015625,-0.017578125,0.0,0.0,0.0
36114329,28692,0,1.001953125,-0.03125,0.021484375,-0.009765625,0.0,0.0,0.0
36115581,28693,0,1.005859375,-0.03125,0.01953125,-0.01171875,0.0,0.0,0.0
36116833,28694,0,1.005859375,-0.02734375,0.015625,-0.01171875,0.0,0.0,0.0
36118083,28695,0,1.0,-0.02734375,0.01171875,-0.015625,0.0,0.0,0.0
36119333,28696,0,1.005859375,-0.03125,0.021484375,-0.009765625,0.0,0.0,0.0
36120584,28697,0,1.0078125,-0.033203125,0.01953125,-0.013671875,0.0,0.0,0.0
36121835,28698,0,1.00390625,-0.025390625,0.017578125,-0.0078125,0.0,0.0,0.0
36123085,28699,0,1.005859375,-0.0234375,0.01953125,-0.00390625,0.0,0.0,0.0
36124336,28700,0,1.00390625,-0.0234375,0.017578125,-0.005859375,0.0,0.0,0.0
36125587,28701,0,1.005859375,-0.029296875,0.015625,-0.013671875,0.0,0.0,0.0
36126838,28702,0,0.998046875,-0.03125,0.021484375,-0.009765625,0.0,0.0,0.0
36128090,28703,0,0.994140625,-0.025390625,0.01171875,-0.013671875,0.0,0.0,0.0
36129341,28704,0,0.998046875,-0.037109375,0.01171875,-0.025390625,0.0,0.0,0.0
36130592,28705,0,1.0078125,-0.029296875,0.015625,-0.013671875,0.0,0.0,0.0
36131844,28706,0,0.998046875,-0.033203125,0.021484375,-0.01171875,0.0,0.0,0.0
36133095,28707,0,1.001953125,-0.03125,0.01953125,-0.01171875,0.0,0.0,0.0
36134346,28708,0,1.00390625,-0.033203125,0.015625,-0.017578125,0.0,0.0,0.0
36135597,28709,0,1.00390625,-0.033203125,0.013671875,-0.01953125,0.0,0.0,0.0
36136849,28710,0,1.0,-0.03125,0.015625,-0.015625,0.0,0.0,0.0
36138099,28711,0,1.0,-0.033203125,0.017578125,-0.015625,0.0,0.0,0.0
36139351,28712,0,1.005859375,-0.033203125,0.01171875,-0.021484375,0.0,0.0,0.0
36140602,28713,0,1.001953125,-0.03125,0.013671875,-0.017578125,0.0,0.0,0.0
36141854,28714,0,1.00390625,-0.03125,0.015625,-0.015625,0.0,0.0,0.0
36143104,28715,0,1.0078125,-0.03125,0.01953125,-0.01171875,0.0,0.0,0.0
36144354,28716,0,1.00390625,-0.03125,0.017578125,-0.013671875,0.0,0.0,0.0
36145605,28717,0,1.009765625,-0.029296875,0.013671875,-0.015625,0.0,0.0,0.0
36146855,28718,0,1.00390625,-0.029296875,0.021484375,-0.0078125,0.0,0.0,0.0
36148107,28719,0,1.00390625,-0.03125,0.00390625,-0.02734375,0.0,0.0,0.0
36149358,28720,0,1.00390625,-0.02734375,0.015625,-0.01171875,0.0,0.0,0.0
36150609,28721,0,1.009765625,-0.029296875,0.015625,-0.013671875,0.0,0.0,0.0
36151859,28722,0,1.0,-0.029296875,0.01953125,-0.009765625,0.0,0.0,0.0
36153111,28723,0,0.990234375,-0.025390625,0.01953125,-0.005859375,0.0,0.0,0.0
36154362,28724,0,0.99609375,-0.03125,0.017578125,-0.013671875,0.0,0.0,0.0
36155613,28725,0,1.0,-0.025390625,0.009765625,-0.015625,0.0,0.0,0.0
36156865,28726,0,0.998046875,-0.029296875,0.015625,-0.013671875,0.0,0.0,0.0
36158115,28727,0,1.0,-0.033203125,0.01171875,-0.021484375,0.0,0.0,0.0
36159365,28728,0,1.0078125,-0.03515625,0.01953125,-0.015625,0.0,0.0,0.0
36160617,28729,0,1.005859375,-0.033203125,0.017578125,-0.015625,0.0,0.0,0.0
36161867,28730,0,1.005859375,-0.03125,0.01953125,-0.01171875,0.0,0.0,0.0
36163118,28731,0,1.0,-0.03125,0.0234375,-0.0078125,0.0,0.0,0.0
36164369,28732,0,0.998046875,-0.029296875,0.017578125,-0.01171875,0.0,0.0,0.0
36165620,28733,0,1.00390625,-0.03515625,0.015625,-0.01953125,0.0,0.0,0.0
36166871,28734,0,1.0,-0.033203125,0.01953125,-0.013671875,0.0,0.0,0.0
36168123,28735,0,0.998046875,-0.029296875,0.0234375,-0.005859375,0.0,0.0,0.0
36169374,28736,0,1.001953125,-0.029296875,0.01953125,-0.009765625,0.0,0.0,0.0
36170624,28737,0,0.998046875,-0.033203125,0.021484375,-0.01171875,0.0,0.0,0.0
36171875,28738,0,1.0078125,-0.03125,0.02734375,-0.00390625,0.0,0.0,0.0
36173125,28739,0,1.005859375,-0.03125,0.013671875,-0.017578125,0.0,0.0,0.0
36174375,28740,0,1.00390625,-0.033203125,0.015625,-0.017578125,0.0,0.0,0.0
36175626,28741,0,0.998046875,-0.029296875,0.017578125,-0.01171875,0.0,0.0,0.0
36176877,28742,0,1.01171875,-0.033203125,0.013671875,-0.01953125,0.0,0.0,0.0
36178129,28743,0,0.998046875,-0.03125,0.01171875,-0.01953125,0.0,0.0,0.0
36179380,28744,0,1.005859375,-0.03125,0.01953125,-0.01171875,0.0,0.0,0.0
36180630,28745,0,1.0,-0.029296875,0.015625,-0.013671875,0.0,0.0,0.0
36181881,28746,0,1.0078125,-0.02734375,0.017578125,-0.009765625,0.0,0.0,0.0
36183133,28747,0,1.01171875,-0.03125,0.015625,-0.015625,0.0,0.0,0.0
36184384,28748,0,0.994140625,-0.033203125,0.017578125,-0.015625,0.0,0.0,0.0
36185634,28749,0,1.00390625,-0.03125,0.013671875,-0.017578125,0.0,0.0,0.0
36186886,28750,0,1.001953125,-0.03125,0.01953125,-0.01171875,0.0,0.0,0.0
36188136,28751,0,1.001953125,-0.02734375,0.01953125,-0.0078125,0.0,0.0,0.0
36189386,28752,0,1.005859375,-0.029296875,0.0234375,-0.005859375,0.0,0.0,0.0
36190638,28753,0,1.0078125,-0.029296875,0.015625,-0.013671875,0.0,0.0,0.0
36191888,28754,0,1.009765625,-0.02734375,0.01953125,-0.0078125,0.0,0.0,0.0
36193139,28755,0,1.00390625,-0.033203125,0.013671875,-0.01953125,0.0,0.0,0.0
36194391,28756,0,1.00390625,-0.03125,0.017578125,-0.013671875,0.0,0.0,0.0
36195641,28757,0,1.00390625,-0.029296875,0.01953125,-0.009765625,0.0,0.0,0.0
36196892,28758,0,0.99609375,-0.03515625,0.0234375,-0.01171875,0.0,0.0,0.0
36198142,28759,0,1.00390625,-0.03125,0.0234375,-0.0078125,0.0,0.0,0.0
36199393,28760,0,1.005859375,-0.02734375,0.01953125,-0.0078125,0.0,0.0,0.0
36200645,28761,0,0.998046875,-0.02734375,0.02734375,0.0,0.0,0.0,0.0
36201895,28762,0,1.0,-0.03125,0.021484375,-0.009765625,0.0,0.0,0.0
36203147,28763,0,1.015625,-0.021484375,0.02734375,0.005859375,0.0,0.0,0.0
36204397,28764,0,1.0078125,-0.033203125,0.015625,-0.017578125,0.0,0.0,0.0
36205649,28765,0,1.00390625,-0.02734375,0.025390625,-0.001953125,0.0,0.0,0.0
36206899,28766,0,0.998046875,-0.03125,0.017578125,-0.013671875,0.0,0.0,0.0
36208149,28767,0,1.005859375,-0.029296875,0.01953125,-0.009765625,0.0,0.0,0.0
36209399,28768,0,1.0,-0.033203125,0.015625,-0.017578125,0.0,0.0,0.0
36210650,28769,0,1.001953125,-0.02734375,0.01171875,-0.015625,0.0,0.0,0.0
36211902,28770,0,1.00390625,-0.029296875,0.015625,-0.013671875,0.0,0.0,0.0
36213153,28771,0,1.001953125,-0.02734375,0.01953125,-0.0078125,0.0,0.0,0.0
36214404,28772,0,0.99609375,-0.033203125,0.021484375,-0.01171875,0.0,0.0,0.0
36215654,28773,0,1.0,-0.029296875,0.021484375,-0.0078125,0.0,0.0,0.0
36216904,28774,0,1.005859375,-0.029296875,0.021484375,-0.0078125,0.0,0.0,0.0
36218155,28775,0,1.005859375,-0.03125,0.021484375,-0.009765625,0.0,0.0,0.0
36219407,28776,0,1.00390625,-0.033203125,0.01953125,-0.013671875,0.0,0.0,0.0
36220657,28777,0,1.001953125,-0.029296875,0.021484375,-0.0078125,0.0,0.0,0.0
36221909,28778,0,0.998046875,-0.03125,0.021484375,-0.009765625,0.0,0.0,0.0
36223159,28779,0,1.005859375,-0.03125,0.01953125,-0.01171875,0.0,0.0,0.0
36224409,28780,0,1.005859375,-0.03125,0.017578125,-0.013671875,0.0,0.0,0.0
36225661,28781,0,1.0078125,-0.03515625,0.01953125,-0.015625,0.0,0.0,0.0
36226911,28782,0,1.001953125,-0.033203125,0.01953125,-0.013671875,0.0,0.0,0.0
36228161,28783,0,1.0078125,-0.02734375,0.01953125,-0.0078125,0.0,0.0,0.0
36229411,28784,0,1.017578125,-0.02734375,0.017578125,-0.009765625,0.0,0.0,0.0
36230663,28785,0,1.005859375,-0.03515625,0.017578125,-0.017578125,0.0,0.0,0.0
36231913,28786,0,1.0078125,-0.03515625,0.009765625,-0.025390625,0.0,0.0,0.0
36233164,28787,0,1.0,-0.029296875,0.013671875,-0.015625,0.0,0.0,0.0
36234415,28788,0,1.0,-0.02734375,0.013671875,-0.013671875,0.0,0.0,0.0
36235666,28789,0,1.009765625,-0.029296875,0.015625,-0.013671875,0.0,0.0,0.0
36236916,28790,0,1.009765625,-0.02734375,0.017578125,-0.009765625,0.0,0.0,0.0
36238167,28791,0,1.005859375,-0.03125,0.01953125,-0.01171875,0.0,0.0,0.0
36239417,28792,0,1.00390625,-0.03515625,0.015625,-0.01953125,0.0,0.0,0.0
36240668,28793,0,1.0078125,-0.03125,0.01171875,-0.01953125,0.0,0.0,0.0
36241920,28794,0,1.005859375,-0.03125,0.01953125,-0.01171875,0.0,0.0,0.0
36243171,28795,0,1.005859375,-0.03125,0.01953125,-0.01171875,0.0,0.0,0.0
36244421,28796,0,1.00390625,-0.033203125,0.015625,-0.017578125,0.0,0.0,0.0
36245672,28797,0,1.0,-0.029296875,0.017578125,-0.01171875,0.0,0.0,0.0
36246924,28798,0,1.00390625,-0.02734375,0.01953125,-0.0078125,0.0,0.0,0.0
36248174,28799,0,1.00390625,-0.02734375,0.01953125,-0.0078125,0.0,0.0,0.0
36249425,28800,0,1.001953125,-0.029296875,0.013671875,-0.015625,0.0,0.0,0.0
36250677,28801,0,1.001953125,-0.02734375,0.01953125,-0.0078125,0.0,0.0,0.0
36251927,28802,0,1.0078125,-0.03125,0.01953125,-0.01171875,0.0,0.0,0.0
36253177,28803,0,1.0078125,-0.03125,0.017578125,-0.013671875,0.0,0.0,0.0
36254429,28804,0,1.00390625,-0.02734375,0.02734375,0.0,0.0,0.0,0.0
36255679,28805,0,1.001953125,-0.03125,0.01953125,-0.01171875,0.0,0.0,0.0
36256931,28806,0,0.998046875,-0.033203125,0.01171875,-0.021484375,0.0,0.0,0.0
36258181,28807,0,1.00390625,-0.037109375,0.009765625,-0.02734375,0.0,0.0,0.0
36259431,28808,0,1.0,-0.033203125,0.021484375,-0.01171875,0.0,0.0,0.0
36260683,28809,0,1.005859375,-0.02734375,0.029296875,0.001953125,0.0,0.0,0.0
36261933,28810,0,0.998046875,-0.029296875,0.01171875,-0.017578125,0.0,0.0,0.0
36263183,28811,0,1.001953125,-0.029296875,0.015625,-0.013671875,0.0,0.0,0.0
36264434,28812,0,1.00390625,-0.029296875,0.021484375,-0.0078125,0.0,0.0,0.0
36265685,28813,0,0.99609375,-0.03125,0.017578125,-0.013671875,0.0,0.0,0.0
36266936,28814,0,1.001953125,-0.033203125,0.021484375,-0.01171875,0.0,0.0,0.0
36268186,28815,0,1.005859375,-0.033203125,0.01953125,-0.013671875,0.0,0.0,0.0
36269437,28816,0,1.00390625,-0.03515625,0.015625,-0.01953125,0.0,0.0,0.0
36270687,28817,0,1.001953125,-0.03125,0.01171875,-0.01953125,0.0,0.0,0.0
36271937,28818,0,0.998046875,-0.02734375,0.013671875,-0.013671875,0.0,0.0,0.0
36273188,28819,0,1.0,-0.029296875,0.017578125,-0.01171875,0.0,0.0,0.0
36274440,28820,0,1.00390625,-0.03125,0.017578125,-0.013671875,0.0,0.0,0.0
36275690,28821,0,1.005859375,-0.029296875,0.021484375,-0.0078125,0.0,0.0,0.0
36276942,28822,0,1.0,-0.03515625,0.021484375,-0.013671875,0.0,0.0,0.0
36278193,28823,0,1.0,-0.029296875,0.015625,-0.013671875,0.0,0.0,0.0
36279445,28824,0,1.005859375,-0.03125,0.015625,-0.015625,0.0,0.0,0.0
36280695,28825,0,1.00390625,-0.029296875,0.01953125,-0.009765625,0.0,0.0,0.0
36281947,28826,0,1.0078125,-0.029296875,0.017578125,-0.01171875,0.0,0.0,0.0
36283198,28827,0,1.00390625,-0.02734375,0.01953125,-0.0078125,0.0,0.0,0.0
36284450,28828,0,1.0078125,-0.029296875,0.013671875,-0.015625,0.0,0.0,0.0
36285700,28829,0,1.0078125,-0.029296875,0.015625,-0.013671875,0.0,0.0,0.0
36286952,28830,0,1.00390625,-0.03125,0.013671875,-0.017578125,0.0,0.0,0.0
36288203,28831,0,1.00390625,-0.033203125,0.017578125,-0.015625,0.0,0.0,0.0
36289454,28832,0,1.0,-0.029296875,0.01953125,-0.009765625,0.0,0.0,0.0
36290705,28833,0,1.001953125,-0.033203125,0.015625,-0.017578125,0.0,0.0,0.0
36291957,28834,0,1.001953125,-0.03125,0.01953125,-0.01171875,0.0,0.0,0.0
36293207,28835,0,1.0078125,-0.029296875,0.01953125,-0.009765625,0.0,0.0,0.0
36294459,28836,0,1.00390625,-0.033203125,0.01953125,-0.013671875,0.0,0.0,0.0
36295709,28837,0,0.998046875,-0.033203125,0.015625,-0.017578125,0.0,0.0,0.0
36296959,28838,0,1.00390625,-0.03125,0.0234375,-0.0078125,0.0,0.0,0.0
36298209,28839,0,1.0,-0.033203125,0.021484375,-0.01171875,0.0,0.0,0.0
36299459,28840,0,1.005859375,-0.033203125,0.013671875,-0.01953125,0.0,0.0,0.0
36300711,28841,0,1.0,-0.033203125,0.01953125,-0.013671875,0.0,0.0,0.0
36301961,28842,0,1.0,-0.03515625,0.01171875,-0.0234375,0.0,0.0,0.0
36303213,28843,0,1.00390625,-0.03515625,0.01953125,-0.015625,0.0,0.0,0.0
36304464,28844,0,1.001953125,-0.03125,0.01953125,-0.01171875,0.0,0.0,0.0
36305715,28845,0,1.0078125,-0.025390625,0.017578125,-0.0078125,0.0,0.0,0.0
36306966,28846,0,1.005859375,-0.033203125,0.01953125,-0.013671875,0.0,0.0,0.0
36308216,28847,0,1.005859375,-0.033203125,0.021484375,-0.01171875,0.0,0.0,0.0
36309467,28848,0,1.0078125,-0.029296875,0.021484375,-0.0078125,0.0,0.0,0.0
36310718,28849,0,1.01953125,-0.029296875,0.015625,-0.013671875,0.0,0.0,0.0
36311968,28850,0,1.005859375,-0.029296875,0.017578125,-0.01171875,0.0,0.0,0.0
36313219,28851,0,1.009765625,-0.033203125,0.015625,-0.017578125,0.0,0.0,0.0
36314470,28852,0,1.00390625,-0.02734375,0.017578125,-0.009765625,0.0,0.0,0.0
36315721,28853,0,1.005859375,-0.02734375,0.01953125,-0.0078125,0.0,0.0,0.0
36316971,28854,0,1.005859375,-0.029296875,0.013671875,-0.015625,0.0,0.0,0.0
36318223,28855,0,1.001953125,-0.03515625,0.015625,-0.01953125,0.0,0.0,0.0
36319473,28856,0,0.998046875,-0.03125,0.01953125,-0.01171875,0.0,0.0,0.0
36320723,28857,0,1.005859375,-0.03125,0.017578125,-0.013671875,0.0,0.0,0.0
36321975,28858,0,1.005859375,-0.033203125,0.01953125,-0.013671875,0.0,0.0,0.0
36323226,28859,0,1.0078125,-0.03125,0.01953125,-0.01171875,0.0,0.0,0.0
36324476,28860,0,1.001953125,-0.03515625,0.01953125,-0.015625,0.0,0.0,0.0
36325728,28861,0,1.001953125,-0.03125,0.021484375,-0.009765625,0.0,0.0,0.0
36326979,28862,0,0.998046875,-0.03125,0.015625,-0.015625,0.0,0.0,0.0
36328229,28863,0,1.001953125,-0.02734375,0.021484375,-0.005859375,0.0,0.0,0.0
36329481,28864,0,0.998046875,-0.03125,0.0234375,-0.0078125,0.0,0.0,0.0
36330731,28865,0,1.001953125,-0.029296875,0.015625,-0.013671875,0.0,0.0,0.0
36331981,28866,0,1.0078125,-0.029296875,0.01953125,-0.009765625,0.0,0.0,0.0
36333232,28867,0,1.005859375,-0.029296875,0.0234375,-0.005859375,0.0,0.0,0.0
36334483,28868,0,1.005859375,-0.02734375,0.021484375,-0.005859375,0.0,0.0,0.0
36335734,28869,0,1.0,-0.03125,0.021484375,-0.009765625,0.0,0.0,0.0
36336986,28870,0,1.005859375,-0.029296875,0.021484375,-0.0078125,0.0,0.0,0.0
36338236,28871,0,1.005859375,-0.03125,0.01953125,-0.01171875,0.0,0.0,0.0
36339486,28872,0,1.001953125,-0.033203125,0.0234375,-0.009765625,0.0,0.0,0.0
36340737,28873,0,0.998046875,-0.03515625,0.015625,-0.01953125,0.0,0.0,0.0
36341987,28874,0,1.013671875,-0.029296875,0.025390625,-0.00390625,0.0,0.0,0.0
36343238,28875,0,1.0078125,-0.029296875,0.025390625,-0.00390625,0.0,0.0,0.0
36344489,28876,0,0.998046875,-0.03515625,0.021484375,-0.013671875,0.0,0.0,0.0
36345740,28877,0,1.0,-0.03125,0.021484375,-0.009765625,0.0,0.0,0.0
36346991,28878,0,1.005859375,-0.033203125,0.017578125,-0.015625,0.0,0.0,0.0
36348241,28879,0,1.001953125,-0.029296875,0.017578125,-0.01171875,0.0,0.0,0.0
36349492,28880,0,1.005859375,-0.033203125,0.017578125,-0.015625,0.0,0.0,0.0
36350744,28881,0,1.005859375,-0.03515625,0.017578125,-0.017578125,0.0,0.0,0.0
36351994,28882,0,1.001953125,-0.029296875,0.01953125,-0.009765625,0.0,0.0,0.0
36353245,28883,0,1.005859375,-0.03125,0.01953125,-0.01171875,0.0,0.0,0.0
36354496,28884,0,0.998046875,-0.03125,0.021484375,-0.009765625,0.0,0.0,0.0
36355747,28885,0,1.001953125,-0.029296875,0.017578125,-0.01171875,0.0,0.0,0.0
36356998,28886,0,1.00390625,-0.03125,0.0234375,-0.0078125,0.0,0.0,0.0
36358249,28887,0,1.0,-0.029296875,0.017578125,-0.01171875,0.0,0.0,0.0
36359499,28888,0,1.005859375,-0.03125,0.013671875,-0.017578125,0.0,0.0,0.0
36360751,28889,0,1.009765625,-0.03125,0.015625,-0.015625,0.0,0.0,0.0
36362002,28890,0,1.0078125,-0.02734375,0.01953125,-0.0078125,0.0,0.0,0.0
36363253,28891,0,1.0078125,-0.0234375,0.021484375,-0.001953125,0.0,0.0,0.0
36364503,28892,0,1.001953125,-0.033203125,0.01953125,-0.013671875,0.0,0.0,0.0
36365755,28893,0,1.001953125,-0.029296875,0.0234375,-0.005859375,0.0,0.0,0.0
36367005,28894,0,1.00390625,-0.0234375,0.015625,-0.0078125,0.0,0.0,0.0
36368256,28895,0,1.001953125,-0.0234375,0.013671875,-0.009765625,0.0,0.0,0.0
36369506,28896,0,1.001953125,-0.03125,0.021484375,-0.009765625,0.0,0.0,0.0
36370757,28897,0,1.001953125,-0.02734375,0.017578125,-0.009765625,0.0,0.0,0.0
36372008,28898,0,1.001953125,-0.033203125,0.009765625,-0.0234375,0.0,0.0,0.0
36373258,28899,0,1.00390625,-0.03125,0.01953125,-0.01171875,0.0,0.0,0.0
36374508,28900,0,0.998046875,-0.033203125,0.021484375,-0.01171875,0.0,0.0,0.0
36375759,28901,0,1.00390625,-0.03125,0.015625,-0.015625,0.0,0.0,0.0
36377009,28902,0,1.001953125,-0.03125,0.015625,-0.015625,0.0,0.0,0.0
36378259,28903,0,1.0,-0.02734375,0.017578125,-0.009765625,0.0,0.0,0.0
36379510,28904,0,0.99609375,-0.029296875,0.025390625,-0.00390625,0.0,0.0,0.0
36380762,28905,0,1.005859375,-0.03125,0.015625,-0.015625,0.0,0.0,0.0
36382012,28906,0,0.998046875,-0.03125,0.015625,-0.015625,0.0,0.0,0.0
36383271,28907,0,1.001953125,-0.03125,0.01953125,-0.01171875,0.0,0.0,0.0
36384521,28908,0,1.001953125,-0.03515625,0.01953125,-0.015625,0.0,0.0,0.0
36385773,28909,0,1.00390625,-0.03125,0.021484375,-0.009765625,0.0,0.0,0.0
36387023,28910,0,1.005859375,-0.033203125,0.01953125,-0.013671875,0.0,0.0,0.0
36388274,28911,0,1.005859375,-0.029296875,0.01953125,-0.009765625,0.0,0.0,0.0
36389525,28912,0,1.005859375,-0.033203125,0.01953125,-0.013671875,0.0,0.0,0.0
36390776,28913,0,1.005859375,-0.02734375,0.021484375,-0.005859375,0.0,0.0,0.0
36392026,28914,0,0.998046875,-0.02734375,0.017578125,-0.009765625,0.0,0.0,0.0
36393276,28915,0,1.001953125,-0.03125,0.017578125,-0.013671875,0.0,0.0,0.0
36394527,28916,0,1.015625,-0.029296875,0.0234375,-0.005859375,0.0,0.0,0.0
36395778,28917,0,0.994140625,-0.029296875,0.015625,-0.013671875,0.0,0.0,0.0
36397029,28918,0,1.005859375,-0.029296875,0.02734375,-0.001953125,0.0,0.0,0.0
36398280,28919,0,1.005859375,-0.03125,0.017578125,-0.013671875,0.0,0.0,0.0
36399531,28920,0,1.009765625,-0.03515625,0.015625,-0.01953125,0.0,0.0,0.0
36400783,28921,0,1.001953125,-0.03515625,0.013671875,-0.021484375,0.0,0.0,0.0
36402034,28922,0,1.00390625,-0.03125,0.021484375,-0.009765625,0.0,0.0,0.0
36403286,28923,0,0.998046875,-0.029296875,0.015625,-0.013671875,0.0,0.0,0.0
36404537,28924,0,1.0078125,-0.03125,0.01953125,-0.01171875,0.0,0.0,0.0
36405789,28925,0,1.005859375,-0.029296875,0.01953125,-0.009765625,0.0,0.0,0.0
36407039,28926,0,1.005859375,-0.029296875,0.015625,-0.013671875,0.0,0.0,0.0
36408289,28927,0,1.00390625,-0.03125,0.015625,-0.015625,0.0,0.0,0.0
36409541,28928,0,1.00390625,-0.029296875,0.01953125,-0.009765625,0.0,0.0,0.0
36410792,28929,0,1.00390625,-0.025390625,0.01953125,-0.005859375,0.0,0.0,0.0
36412044,28930,0,1.005859375,-0.025390625,0.01953125,-0.005859375,0.0,0.0,0.0
36413294,28931,0,1.00390625,-0.03125,0.021484375,-0.009765625,0.0,0.0,0.0
36414544,28932,0,1.0078125,-0.037109375,0.015625,-0.021484375,0.0,0.0,0.0
36415795,28933,0,1.005859375,-0.03125,0.01953125,-0.01171875,0.0,0.0,0.0
36417045,28934,0,0.998046875,-0.033203125,0.0234375,-0.009765625,0.0,0.0,0.0
36418295,28935,0,1.001953125,-0.029296875,0.01953125,-0.009765625,0.0,0.0,0.0
36419546,28936,0,1.0078125,-0.029296875,0.017578125,-0.01171875,0.0,0.0,0.0
36420797,28937,0,1.017578125,-0.033203125,0.021484375,-0.01171875,0.0,0.0,0.0
36422048,28938,0,1.0078125,-0.02734375,0.017578125,-0.009765625,0.0,0.0,0.0
36423299,28939,0,1.005859375,-0.029296875,0.013671875,-0.015625,0.0,0.0,0.0
36424550,28940,0,1.0078125,-0.029296875,0.0234375,-0.005859375,0.0,0.0,0.0
36425800,28941,0,1.0,-0.03515625,0.013671875,-0.021484375,0.0,0.0,0.0
36427052,28942,0,1.00390625,-0.03515625,0.01953125,-0.015625,0.0,0.0,0.0
36428303,28943,0,1.0,-0.03515625,0.01953125,-0.015625,0.0,0.0,0.0
36429554,28944,0,1.001953125,-0.033203125,0.017578125,-0.015625,0.0,0.0,0.0
36430805,28945,0,1.005859375,-0.02734375,0.0234375,-0.00390625,0.0,0.0,0.0
36432057,28946,0,1.001953125,-0.033203125,0.01953125,-0.013671875,0.0,0.0,0.0
36433308,28947,0,1.00390625,-0.033203125,0.017578125,-0.015625,0.0,0.0,0.0
36434560,28948,0,1.009765625,-0.03515625,0.017578125,-0.017578125,0.0,0.0,0.0
36435811,28949,0,1.001953125,-0.03515625,0.01171875,-0.0234375,0.0,0.0,0.0
36437063,28950,0,1.0078125,-0.03125,0.017578125,-0.013671875,0.0,0.0,0.0
36438314,28951,0,1.001953125,-0.03125,0.01953125,-0.01171875,0.0,0.0,0.0
36439565,28952,0,1.005859375,-0.029296875,0.0234375,-0.005859375,0.0,0.0,0.0
36440816,28953,0,1.005859375,-0.03125,0.01953125,-0.01171875,0.0,0.0,0.0
36442066,28954,0,1.005859375,-0.029296875,0.021484375,-0.0078125,0.0,0.0,0.0
36443318,28955,0,1.0,-0.029296875,0.015625,-0.013671875,0.0,0.0,0.0
36444569,28956,0,1.009765625,-0.03125,0.01171875,-0.01953125,0.0,0.0,0.0
36445819,28957,0,1.0,-0.03515625,0.0234375,-0.01171875,0.0,0.0,0.0
36447070,28958,0,1.00390625,-0.033203125,0.01171875,-0.021484375,0.0,0.0,0.0
36448321,28959,0,1.00390625,-0.03125,0.015625,-0.015625,0.0,0.0,0.0
36449572,28960,0,1.005859375,-0.033203125,0.013671875,-0.01953125,0.0,0.0,0.0
36450823,28961,0,1.009765625,-0.033203125,0.021484375,-0.01171875,0.0,0.0,0.0
36452074,28962,0,1.00390625,-0.033203125,0.017578125,-0.015625,0.0,0.0,0.0
36453325,28963,0,1.0,-0.03125,0.01953125,-0.01171875,0.0,0.0,0.0
36454575,28964,0,1.00390625,-0.0390625,0.021484375,-0.017578125,0.0,0.0,0.0
36455825,28965,0,1.00390625,-0.03125,0.015625,-0.015625,0.0,0.0,0.0
36457076,28966,0,1.0,-0.029296875,0.021484375,-0.0078125,0.0,0.0,0.0
36458326,28967,0,1.001953125,-0.03125,0.021484375,-0.009765625,0.0,0.0,0.0
36459577,28968,0,1.0,-0.033203125,0.015625,-0.017578125,0.0,0.0,0.0
36460828,28969,0,1.009765625,-0.029296875,0.017578125,-0.01171875,0.0,0.0,0.0
36462078,28970,0,1.009765625,-0.037109375,0.013671875,-0.0234375,0.0,0.0,0.0
36463329,28971,0,0.998046875,-0.0390625,0.01171875,-0.02734375,0.0,0.0,0.0
36464581,28972,0,1.00390625,-0.0390625,0.013671875,-0.025390625,0.0,0.0,0.0
36465833,28973,0,1.001953125,-0.0390625,0.013671875,-0.025390625,0.0,0.0,0.0
36467083,28974,0,1.0078125,-0.03125,0.015625,-0.015625,0.0,0.0,0.0
36468333,28975,0,1.00390625,-0.029296875,0.015625,-0.013671875,0.0,0.0,0.0
36469584,28976,0,1.009765625,-0.037109375,0.015625,-0.021484375,0.0,0.0,0.0
36470835,28977,0,1.0,-0.05078125,0.005859375,-0.044921875,0.0,0.0,0.0
36472085,28978,0,0.998046875,-0.080078125,-0.021484375,-0.1015625,0.0,0.0,0.0
36473336,28979,0,1.009765625,-0.0625,-0.009765625,-0.072265625,0.0,0.0,0.0
36474587,28980,0,0.978515625,-0.30859375,-0.115234375,-0.423828125,0.0,0.0,0.0
36475838,28981,0,0.9140625,-1.5703125,-0.693359375,-2.263671875,0.0,0.0,0.0
36477090,28982,0,0.8984375,1.6015625,0.6015625,2.203125,0.0,0.0,0.0
36478341,28983,0,1.240234375,0.81640625,0.41015625,1.2265625,0.0,0.0,0.0
36479592,28984,0,1.03515625,-0.2734375,-0.0703125,-0.34375,0.0,0.0,0.0
36480844,28985,0,0.8828125,-0.1640625,-0.001953125,-0.166015625,0.0,0.0,0.0
36482095,28986,0,1.072265625,-0.125,-0.056640625,-0.181640625,0.0,0.0,0.0
36483346,28987,0,0.931640625,-0.005859375,0.0078125,0.001953125,0.0,0.0,0.0
36484597,28988,0,1.025390625,-0.08203125,-0.021484375,-0.103515625,0.0,0.0,0.0
36485849,28989,0,0.958984375,-0.0390625,0.029296875,-0.009765625,0.0,0.0,0.0
36487099,28990,0,1.08203125,0.0078125,-0.01171875,-0.00390625,0.0,0.0,0.0
36488351,28991,0,0.9765625,-0.00390625,0.076171875,0.072265625,0.0,0.0,0.0
36489602,28992,0,1.025390625,0.001953125,0.021484375,0.0234375,0.0,0.0,0.0
36490854,28993,0,1.01953125,-0.064453125,-0.015625,-0.080078125,0.0,0.0,0.0
36492104,28994,0,1.0,-0.11328125,-0.044921875,-0.158203125,0.0,0.0,0.0
36493354,28995,0,0.98828125,-0.02734375,0.025390625,-0.001953125,0.0,0.0,0.0
36494605,28996,0,1.02734375,-0.044921875,0.009765625,-0.03515625,0.0,0.0,0.0
36495855,28997,0,0.998046875,-0.126953125,-0.025390625,-0.15234375,0.0,0.0,0.0
36497107,28998,0,0.955078125,-0.078125,0.013671875,-0.064453125,0.0,0.0,0.0
36498358,28999,0,1.037109375,0.060546875,0.033203125,0.09375,0.0,0.0,0.0
36499609,29000,0,0.99609375,-0.029296875,0.03515625,0.005859375,0.0,0.0,0.0
36500859,29001,0,0.99609375,-0.013671875,0.04296875,0.029296875,0.0,0.0,0.0
36502111,29002,0,1.009765625,-0.017578125,0.029296875,0.01171875,0.0,0.0,0.0
36503362,29003,0,1.03515625,-0.009765625,0.064453125,0.0546875,0.0,0.0,0.0
36504613,29004,0,0.982421875,0.009765625,0.02734375,0.037109375,0.0,0.0,0.0
36505865,29005,0,0.982421875,-0.00390625,0.01953125,0.015625,0.0,0.0,0.0
36507115,29006,0,1.009765625,0.017578125,0.033203125,0.05078125,0.0,0.0,0.0
36508365,29007,0,1.0,-0.07421875,0.001953125,-0.072265625,0.0,0.0,0.0
36509617,29008,0,1.03515625,-0.068359375,-0.01953125,-0.087890625,0.0,0.0,0.0
36510867,29009,0,1.001953125,0.01953125,0.05078125,0.0703125,0.0,0.0,0.0
36512118,29010,0,1.005859375,-0.05859375,0.009765625,-0.048828125,0.0,0.0,0.0
36513369,29011,0,0.974609375,-0.0703125,-0.00390625,-0.07421875,0.0,0.0,0.0
36514620,29012,0,0.9765625,-0.25390625,-0.095703125,-0.349609375,0.0,0.0,0.0
36515871,29013,0,0.94140625,-0.283203125,-0.107421875,-0.390625,0.0,0.0,0.0
36517123,29014,0,0.9765625,-0.42578125,-0.18359375,-0.609375,0.0,0.0,0.0
36518374,29015,0,0.919921875,-0.75390625,-0.337890625,-1.091796875,0.0,0.0,0.0
36519624,29016,0,0.951171875,-1.787109375,-0.609375,-2.396484375,0.0,0.0,0.0
36520875,29017,0,0.8515625,-1.908203125,-0.953125,-2.861328125,0.0,0.0,0.0
36522125,29018,0,1.4609375,-1.03515625,-0.0625,-1.09765625,0.0,0.0,0.0
36523375,29019,0,0.798828125,-0.36328125,-0.259765625,-0.623046875,0.0,0.0,0.0
36524626,29020,0,1.021484375,-0.4140625,-0.201171875,-0.615234375,0.0,0.0,0.0
36525877,29021,0,0.91015625,-3.919921875,-0.94921875,-4.869140625,0.0,0.0,0.0
36527129,29022,0,2.5859375,-4.0,-4.0,-8.0,0.0,0.0,0.0
36528380,29023,0,-2.884765625,-4.0,-4.0,-8.0,0.0,0.0,0.0
36529630,29024,0,1.392578125,-2.455078125,-4.0,-6.455078125,0.0,0.0,0.0
36530881,29025,0,1.26171875,3.849609375,-2.857421875,0.9921875,0.0,0.0,0.0
36532133,29026,0,0.80078125,3.998046875,0.3828125,4.380859375,0.0,0.0,0.0
36533384,29027,0,2.4765625,3.998046875,2.4453125,6.443359375,0.0,0.0,0.0
36534634,29028,0,1.501953125,3.998046875,3.998046875,7.99609375,0.0,0.0,0.0
36535886,29029,0,0.52734375,3.998046875,3.998046875,7.99609375,0.0,0.0,0.0
36537136,29030,0,1.892578125,3.998046875,3.998046875,7.99609375,0.0,0.0,0.0
36538386,29031,0,0.984375,3.998046875,2.927734375,6.92578125,0.0,0.0,0.0
36539638,29032,0,0.73046875,3.576171875,1.134765625,4.7109375,0.0,0.0,0.0
36540888,29033,0,1.20703125,-0.884765625,-0.71875,-1.603515625,0.0,0.0,0.0
36542139,29034,0,1.33203125,-4.0,-2.244140625,-6.244140625,0.0,0.0,0.0
36543391,29035,0,0.58984375,-4.0,-2.671875,-6.671875,0.0,0.0,0.0
36544641,29036,0,0.701171875,-4.0,-2.841796875,-6.841796875,0.0,0.0,0.0
36545892,29037,0,0.908203125,-4.0,-2.869140625,-6.869140625,0.0,0.0,0.0
36547142,29038,0,0.326171875,-4.0,-2.083984375,-6.083984375,0.0,0.0,0.0
36548393,29039,0,0.826171875,-3.123046875,-1.416015625,-4.5390625,0.0,0.0,0.0
36549645,29040,0,1.330078125,-0.46875,-0.71484375,-1.18359375,0.0,0.0,0.0
36550895,29041,0,1.26953125,1.89453125,0.234375,2.12890625,0.0,0.0,0.0
36552147,29042,0,1.16796875,3.541015625,1.154296875,4.6953125,0.0,0.0,0.0
36553397,29043,0,1.345703125,3.998046875,1.455078125,5.453125,0.0,0.0,0.0
36554649,29044,0,1.048828125,3.998046875,1.69140625,5.689453125,0.0,0.0,0.0
36555899,29045,0,0.6640625,3.705078125,1.6875,5.392578125,0.0,0.0,0.0
36557149,29046,0,1.03515625,2.44921875,0.31640625,2.765625,0.0,0.0,0.0
36558399,29047,0,1.212890625,0.9453125,-0.138671875,0.806640625,0.0,0.0,0.0
36559650,29048,0,0.9375,-1.693359375,-0.697265625,-2.390625,0.0,0.0,0.0
36560902,29049,0,1.150390625,-2.451171875,-0.99609375,-3.447265625,0.0,0.0,0.0
36562153,29050,0,0.8125,-2.638671875,-0.908203125,-3.546875,0.0,0.0,0.0
36563404,29051,0,0.7109375,-2.35546875,-0.76953125,-3.125,0.0,0.0,0.0
36564654,29052,0,0.939453125,-1.669921875,-0.658203125,-2.328125,0.0,0.0,0.0
36565904,29053,0,0.951171875,-0.8046875,-0.3203125,-1.125,0.0,0.0,0.0
36567155,29054,0,0.908203125,0.09375,0.0234375,0.1171875,0.0,0.0,0.0
36568407,29055,0,1.26953125,0.84765625,0.177734375,1.025390625,0.0,0.0,0.0
36569657,29056,0,1.212890625,1.357421875,0.42578125,1.783203125,0.0,0.0,0.0
36570909,29057,0,0.970703125,1.546875,0.625,2.171875,0.0,0.0,0.0
36572159,29058,0,1.044921875,1.427734375,0.587890625,2.015625,0.0,0.0,0.0
36573409,29059,0,0.982421875,1.0703125,0.48046875,1.55078125,0.0,0.0,0.0
36574661,29060,0,0.845703125,0.583984375,0.35546875,0.939453125,0.0,0.0,0.0
36575911,29061,0,0.953125,0.033203125,0.09375,0.126953125,0.0,0.0,0.0
36577161,29062,0,1.154296875,-0.42578125,-0.19921875,-0.625,0.0,0.0,0.0
36578411,29063,0,1.03515625,-0.759765625,-0.283203125,-1.04296875,0.0,0.0,0.0
36579663,29064,0,1.01171875,-0.912109375,-0.322265625,-1.234375,0.0,0.0,0.0
36580913,29065,0,1.076171875,-0.876953125,-0.33203125,-1.208984375,0.0,0.0,0.0
36582164,29066,0,0.87109375,-0.662109375,-0.18359375,-0.845703125,0.0,0.0,0.0
36583415,29067,0,0.814453125,-0.3671875,-0.0546875,-0.421875,0.0,0.0,0.0
36584666,29068,0,0.998046875,-0.048828125,0.0,-0.048828125,0.0,0.0,0.0
36585916,29069,0,1.064453125,0.2421875,0.07421875,0.31640625,0.0,0.0,0.0
36587167,29070,0,1.0546875,0.443359375,0.16796875,0.611328125,0.0,0.0,0.0
36588417,29071,0,1.13671875,0.546875,0.18359375,0.73046875,0.0,0.0,0.0
36589668,29072,0,1.109375,0.52734375,0.1953125,0.72265625,0.0,0.0,0.0
36590920,29073,0,0.91015625,0.419921875,0.2578125,0.677734375,0.0,0.0,0.0
36592171,29074,0,0.912109375,0.24609375,0.1875,0.43359375,0.0,0.0,0.0
36593421,29075,0,0.9765625,0.05078125,0.076171875,0.126953125,0.0,0.0,0.0
36594672,29076,0,0.955078125,-0.125,0.013671875,-0.111328125,0.0,0.0,0.0
36595924,29077,0,1.044921875,-0.2578125,-0.07421875,-0.33203125,0.0,0.0,0.0
36597174,29078,0,1.12109375,-0.330078125,-0.16015625,-0.490234375,0.0,0.0,0.0
36598425,29079,0,1.05859375,-0.32421875,-0.123046875,-0.447265625,0.0,0.0,0.0
36599677,29080,0,0.943359375,-0.265625,-0.056640625,-0.322265625,0.0,0.0,0.0
36600927,29081,0,0.958984375,-0.15625,-0.015625,-0.171875,0.0,0.0,0.0
36602177,29082,0,0.94140625,-0.04296875,0.037109375,-0.005859375,0.0,0.0,0.0
36603429,29083,0,0.935546875,0.068359375,0.087890625,0.15625,0.0,0.0,0.0
36604679,29084,0,1.052734375,0.140625,0.07421875,0.21484375,0.0,0.0,0.0
36605931,29085,0,1.099609375,0.171875,0.048828125,0.220703125,0.0,0.0,0.0
36607181,29086,0,1.0546875,0.169921875,0.076171875,0.24609375,0.0,0.0,0.0
36608431,29087,0,1.03125,0.1171875,0.0703125,0.1875,0.0,0.0,0.0
36609683,29088,0,1.009765625,0.060546875,0.056640625,0.1171875,0.0,0.0,0.0
36610933,29089,0,0.9375,-0.00390625,0.041015625,0.037109375,0.0,0.0,0.0
36612183,29090,0,0.923828125,-0.107421875,-0.025390625,-0.1328125,0.0,0.0,0.0
36613434,29091,0,1.017578125,-0.134765625,-0.044921875,-0.1796875,0.0,0.0,0.0
36614685,29092,0,1.037109375,-0.138671875,-0.0546875,-0.193359375,0.0,0.0,0.0
36615936,29093,0,1.07421875,-0.125,-0.064453125,-0.189453125,0.0,0.0,0.0
36617186,29094,0,1.021484375,-0.091796875,-0.025390625,-0.1171875,0.0,0.0,0.0
36618437,29095,0,0.94921875,-0.056640625,0.029296875,-0.02734375,0.0,0.0,0.0
36619687,29096,0,0.94921875,-0.02734375,0.046875,0.01953125,0.0,0.0,0.0
36620937,29097,0,0.98046875,0.0078125,0.033203125,0.041015625,0.0,0.0,0.0
36622188,29098,0,0.990234375,0.033203125,0.037109375,0.0703125,0.0,0.0,0.0
36623440,29099,0,1.044921875,0.029296875,0.013671875,0.04296875,0.0,0.0,0.0
36624690,29100,0,1.083984375,0.017578125,0.001953125,0.01953125,0.0,0.0,0.0
36625942,29101,0,1.03125,-0.00390625,0.009765625,0.005859375,0.0,0.0,0.0
36627193,29102,0,0.98046875,-0.0234375,0.0234375,0.0,0.0,0.0,0.0
36628445,29103,0,0.970703125,-0.046875,0.025390625,-0.021484375,0.0,0.0,0.0
36629695,29104,0,0.9609375,-0.056640625,0.025390625,-0.03125,0.0,0.0,0.0
36630947,29105,0,0.970703125,-0.06640625,0.01171875,-0.0546875,0.0,0.0,0.0
36632198,29106,0,1.03125,-0.064453125,-0.015625,-0.080078125,0.0,0.0,0.0
36633450,29107,0,1.0546875,-0.060546875,-0.0234375,-0.083984375,0.0,0.0,0.0
36634700,29108,0,1.033203125,-0.041015625,-0.013671875,-0.0546875,0.0,0.0,0.0
36635952,29109,0,1.029296875,-0.029296875,-0.005859375,-0.03515625,0.0,0.0,0.0
36637203,29110,0,0.998046875,-0.01953125,0.021484375,0.001953125,0.0,0.0,0.0
36638454,29111,0,0.947265625,-0.0078125,0.046875,0.0390625,0.0,0.0,0.0
36639705,29112,0,0.978515625,-0.005859375,0.02734375,0.021484375,0.0,0.0,0.0
36640957,29113,0,1.017578125,-0.001953125,0.013671875,0.01171875,0.0,0.0,0.0
36642207,29114,0,1.03125,-0.00390625,0.005859375,0.001953125,0.0,0.0,0.0
36643459,29115,0,1.029296875,-0.001953125,0.01171875,0.009765625,0.0,0.0,0.0
36644709,29116,0,1.029296875,-0.009765625,0.005859375,-0.00390625,0.0,0.0,0.0
36645959,29117,0,0.99609375,-0.013671875,0.025390625,0.01171875,0.0,0.0,0.0
36647209,29118,0,0.96875,-0.01953125,0.03515625,0.015625,0.0,0.0,0.0
36648459,29119,0,0.986328125,-0.021484375,0.02734375,0.005859375,0.0,0.0,0.0
36649711,29120,0,1.00390625,-0.033203125,0.013671875,-0.01953125,0.0,0.0,0.0
36650961,29121,0,1.001953125,-0.021484375,0.013671875,-0.0078125,0.0,0.0,0.0
36652213,29122,0,1.03125,-0.013671875,0.009765625,-0.00390625,0.0,0.0,0.0
36653464,29123,0,1.033203125,-0.01171875,0.0078125,-0.00390625,0.0,0.0,0.0
36654715,29124,0,0.998046875,-0.0078125,0.025390625,0.017578125,0.0,0.0,0.0
36655966,29125,0,0.990234375,-0.0078125,0.03125,0.0234375,0.0,0.0,0.0
36657216,29126,0,0.9921875,-0.00390625,0.03125,0.02734375,0.0,0.0,0.0
36658467,29127,0,0.990234375,-0.009765625,0.03515625,0.025390625,0.0,0.0,0.0
36659718,29128,0,1.0,-0.001953125,0.02734375,0.025390625,0.0,0.0,0.0
36660968,29129,0,1.029296875,-0.0078125,0.013671875,0.005859375,0.0,0.0,0.0
36662219,29130,0,1.01953125,-0.009765625,0.01953125,0.009765625,0.0,0.0,0.0
36663470,29131,0,1.017578125,-0.0234375,0.029296875,0.005859375,0.0,0.0,0.0
36664721,29132,0,0.99609375,-0.017578125,0.025390625,0.0078125,0.0,0.0,0.0
36665971,29133,0,0.9921875,-0.0234375,0.025390625,0.001953125,0.0,0.0,0.0
36667223,29134,0,0.984375,-0.021484375,0.021484375,0.0,0.0,0.0,0.0
36668473,29135,0,1.01953125,-0.02734375,0.013671875,-0.013671875,0.0,0.0,0.0
36669723,29136,0,1.009765625,-0.02734375,0.013671875,-0.013671875,0.0,0.0,0.0
36670975,29137,0,1.0234375,-0.02734375,0.01953125,-0.0078125,0.0,0.0,0.0
36672226,29138,0,1.01171875,-0.0234375,0.017578125,-0.005859375,0.0,0.0,0.0
36673476,29139,0,0.994140625,-0.029296875,0.029296875,0.0,0.0,0.0,0.0
36674728,29140,0,0.984375,-0.03125,0.029296875,-0.001953125,0.0,0.0,0.0
36675979,29141,0,0.99609375,-0.03125,0.0234375,-0.0078125,0.0,0.0,0.0
36677229,29142,0,1.009765625,-0.03515625,0.017578125,-0.017578125,0.0,0.0,0.0
36678481,29143,0,1.009765625,-0.037109375,0.009765625,-0.02734375,0.0,0.0,0.0
36679731,29144,0,1.021484375,-0.0390625,0.0078125,-0.03125,0.0,0.0,0.0
36680981,29145,0,1.013671875,-0.0390625,0.0078125,-0.03125,0.0,0.0,0.0
36682232,29146,0,0.98828125,-0.0390625,0.017578125,-0.021484375,0.0,0.0,0.0
36683483,29147,0,0.990234375,-0.037109375,0.01953125,-0.017578125,0.0,0.0,0.0
36684734,29148,0,0.994140625,-0.041015625,0.0078125,-0.033203125,0.0,0.0,0.0
36685986,29149,0,1.0078125,-0.0390625,0.009765625,-0.029296875,0.0,0.0,0.0
36687236,29150,0,1.009765625,-0.037109375,0.005859375,-0.03125,0.0,0.0,0.0
36688486,29151,0,1.021484375,-0.041015625,0.0,-0.041015625,0.0,0.0,0.0
36689737,29152,0,1.005859375,-0.044921875,0.01171875,-0.033203125,0.0,0.0,0.0
36690987,29153,0,1.00390625,-0.037109375,0.009765625,-0.02734375,0.0,0.0,0.0
36692238,29154,0,0.990234375,-0.04296875,0.00390625,-0.0390625,0.0,0.0,0.0
36693489,29155,0,0.994140625,-0.0390625,0.015625,-0.0234375,0.0,0.0,0.0
36694740,29156,0,0.994140625,-0.0390625,0.0078125,-0.03125,0.0,0.0,0.0
36695991,29157,0,1.01171875,-0.037109375,0.001953125,-0.03515625,0.0,0.0,0.0
36697241,29158,0,1.013671875,-0.037109375,0.009765625,-0.02734375,0.0,0.0,0.0
36698492,29159,0,1.017578125,-0.03515625,0.005859375,-0.029296875,0.0,0.0,0.0
36699744,29160,0,1.005859375,-0.03125,0.0078125,-0.0234375,0.0,0.0,0.0
36700994,29161,0,0.9921875,-0.03515625,0.01171875,-0.0234375,0.0,0.0,0.0
36702245,29162,0,0.98828125,-0.029296875,0.017578125,-0.01171875,0.0,0.0,0.0
36703496,29163,0,0.99609375,-0.03515625,0.017578125,-0.017578125,0.0,0.0,0.0
36704747,29164,0,1.0078125,-0.02734375,0.01171875,-0.015625,0.0,0.0,0.0
36705998,29165,0,1.005859375,-0.025390625,0.005859375,-0.01953125,0.0,0.0,0.0
36707249,29166,0,1.01171875,-0.025390625,0.0,-0.025390625,0.0,0.0,0.0
36708499,29167,0,1.021484375,-0.021484375,0.009765625,-0.01171875,0.0,0.0,0.0
36709751,29168,0,1.005859375,-0.01953125,0.015625,-0.00390625,0.0,0.0,0.0
36711002,29169,0,0.99609375,-0.015625,0.01953125,0.00390625,0.0,0.0,0.0
36712253,29170,0,0.998046875,-0.0234375,0.01953125,-0.00390625,0.0,0.0,0.0
36713503,29171,0,0.99609375,-0.017578125,0.017578125,0.0,0.0,0.0,0.0
36714755,29172,0,1.00390625,-0.013671875,0.01171875,-0.001953125,0.0,0.0,0.0
36716005,29173,0,1.0078125,-0.015625,0.01953125,0.00390625,0.0,0.0,0.0
36717256,29174,0,1.02734375,-0.015625,0.017578125,0.001953125,0.0,0.0,0.0
36718506,29175,0,1.0078125,-0.01171875,0.021484375,0.009765625,0.0,0.0,0.0
36719757,29176,0,1.009765625,-0.01171875,0.013671875,0.001953125,0.0,0.0,0.0
36721008,29177,0,1.005859375,-0.01171875,0.0234375,0.01171875,0.0,0.0,0.0
36722258,29178,0,1.005859375,-0.015625,0.0234375,0.0078125,0.0,0.0,0.0
36723508,29179,0,1.01171875,-0.01171875,0.017578125,0.005859375,0.0,0.0,0.0
36724759,29180,0,1.01953125,-0.0078125,0.0234375,0.015625,0.0,0.0,0.0
36726009,29181,0,1.0078125,-0.009765625,0.0234375,0.013671875,0.0,0.0,0.0
36727259,29182,0,1.001953125,-0.013671875,0.021484375,0.0078125,0.0,0.0,0.0
36728510,29183,0,1.001953125,-0.013671875,0.025390625,0.01171875,0.0,0.0,0.0
36729762,29184,0,1.0,-0.013671875,0.025390625,0.01171875,0.0,0.0,0.0
36731012,29185,0,1.001953125,-0.013671875,0.01953125,0.005859375,0.0,0.0,0.0
36732271,29186,0,1.009765625,-0.013671875,0.021484375,0.0078125,0.0,0.0,0.0
36733521,29187,0,1.009765625,-0.013671875,0.01953125,0.005859375,0.0,0.0,0.0
36734773,29188,0,1.009765625,-0.01953125,0.01953125,0.0,0.0,0.0,0.0
36736023,29189,0,1.00390625,-0.025390625,0.013671875,-0.01171875,0.0,0.0,0.0
36737274,29190,0,1.0,-0.025390625,0.0234375,-0.001953125,0.0,0.0,0.0
36738525,29191,0,0.99609375,-0.025390625,0.01953125,-0.005859375,0.0,0.0,0.0
36739776,29192,0,1.0,-0.0234375,0.017578125,-0.005859375,0.0,0.0,0.0
36741026,29193,0,1.005859375,-0.025390625,0.025390625,0.0,0.0,0.0,0.0
36742276,29194,0,1.009765625,-0.029296875,0.025390625,-0.00390625,0.0,0.0,0.0
36743527,29195,0,1.009765625,-0.025390625,0.015625,-0.009765625,0.0,0.0,0.0
36744778,29196,0,0.998046875,-0.02734375,0.021484375,-0.005859375,0.0,0.0,0.0
36746029,29197,0,1.005859375,-0.03515625,0.01953125,-0.015625,0.0,0.0,0.0
36747280,29198,0,0.99609375,-0.029296875,0.01953125,-0.009765625,0.0,0.0,0.0
36748531,29199,0,0.994140625,-0.033203125,0.015625,-0.017578125,0.0,0.0,0.0
36749783,29200,0,1.001953125,-0.033203125,0.01171875,-0.021484375,0.0,0.0,0.0
36751034,29201,0,1.00390625,-0.037109375,0.013671875,-0.0234375,0.0,0.0,0.0
36752286,29202,0,1.0078125,-0.03515625,0.01171875,-0.0234375,0.0,0.0,0.0
36753537,29203,0,1.005859375,-0.03515625,0.013671875,-0.021484375,0.0,0.0,0.0
36754789,29204,0,1.0,-0.037109375,0.01171875,-0.025390625,0.0,0.0,0.0
36756039,29205,0,1.00390625,-0.041015625,0.013671875,-0.02734375,0.0,0.0,0.0
36757289,29206,0,0.990234375,-0.041015625,0.01171875,-0.029296875,0.0,0.0,0.0
36758541,29207,0,1.0,-0.037109375,0.013671875,-0.0234375,0.0,0.0,0.0
36759792,29208,0,1.0078125,-0.033203125,0.01953125,-0.013671875,0.0,0.0,0.0
36761044,29209,0,1.009765625,-0.037109375,0.009765625,-0.02734375,0.0,0.0,0.0
36762294,29210,0,1.005859375,-0.033203125,0.009765625,-0.0234375,0.0,0.0,0.0
36763544,29211,0,1.0078125,-0.033203125,0.01171875,-0.021484375,0.0,0.0,0.0
36764795,29212,0,1.00390625,-0.033203125,0.015625,-0.017578125,0.0,0.0,0.0
36766045,29213,0,1.01171875,-0.03125,0.021484375,-0.009765625,0.0,0.0,0.0
36767295,29214,0,1.005859375,-0.033203125,0.015625,-0.017578125,0.0,0.0,0.0
36768546,29215,0,1.005859375,-0.037109375,0.015625,-0.021484375,0.0,0.0,0.0
36769797,29216,0,1.009765625,-0.033203125,0.009765625,-0.0234375,0.0,0.0,0.0
36771048,29217,0,1.009765625,-0.03515625,0.013671875,-0.021484375,0.0,0.0,0.0
36772299,29218,0,1.009765625,-0.03125,0.01171875,-0.01953125,0.0,0.0,0.0
36773550,29219,0,0.998046875,-0.029296875,0.01171875,-0.017578125,0.0,0.0,0.0
36774800,29220,0,1.00390625,-0.029296875,0.015625,-0.013671875,0.0,0.0,0.0
36776052,29221,0,0.998046875,-0.025390625,0.017578125,-0.0078125,0.0,0.0,0.0
36777303,29222,0,1.00390625,-0.021484375,0.01171875,-0.009765625,0.0,0.0,0.0
36778554,29223,0,1.00390625,-0.0234375,0.021484375,-0.001953125,0.0,0.0,0.0
36779805,29224,0,1.009765625,-0.017578125,0.009765625,-0.0078125,0.0,0.0,0.0
36781057,29225,0,1.0,-0.01953125,0.01953125,0.0,0.0,0.0,0.0
36782308,29226,0,1.00390625,-0.021484375,0.017578125,-0.00390625,0.0,0.0,0.0
36783560,29227,0,0.998046875,-0.021484375,0.017578125,-0.00390625,0.0,0.0,0.0
36784811,29228,0,1.001953125,-0.021484375,0.01953125,-0.001953125,0.0,0.0,0.0
36786063,29229,0,1.005859375,-0.017578125,0.013671875,-0.00390625,0.0,0.0,0.0
36787314,29230,0,1.0078125,-0.017578125,0.009765625,-0.0078125,0.0,0.0,0.0
36788565,29231,0,1.00390625,-0.01953125,0.013671875,-0.005859375,0.0,0.0,0.0
36789816,29232,0,1.005859375,-0.01171875,0.0078125,-0.00390625,0.0,0.0,0.0
36791066,29233,0,1.0078125,-0.01953125,0.015625,-0.00390625,0.0,0.0,0.0
36792318,29234,0,1.001953125,-0.01953125,0.0078125,-0.01171875,0.0,0.0,0.0
36793569,29235,0,1.005859375,-0.01171875,0.015625,0.00390625,0.0,0.0,0.0
36794819,29236,0,1.0,-0.01171875,0.015625,0.00390625,0.0,0.0,0.0
36796070,29237,0,1.0078125,-0.017578125,0.013671875,-0.00390625,0.0,0.0,0.0
36797321,29238,0,1.0078125,-0.0078125,0.015625,0.0078125,0.0,0.0,0.0
36798572,29239,0,1.001953125,-0.009765625,0.021484375,0.01171875,0.0,0.0,0.0
36799823,29240,0,0.9921875,-0.013671875,0.009765625,-0.00390625,0.0,0.0,0.0
36801074,29241,0,1.0,-0.01953125,0.017578125,-0.001953125,0.0,0.0,0.0
36802325,29242,0,1.0078125,-0.013671875,0.021484375,0.0078125,0.0,0.0,0.0
36803575,29243,0,1.0,-0.01953125,0.01953125,0.0,0.0,0.0,0.0
36804825,29244,0,1.005859375,-0.01953125,0.01171875,-0.0078125,0.0,0.0,0.0
36806076,29245,0,1.00390625,-0.01953125,0.015625,-0.00390625,0.0,0.0,0.0
36807326,29246,0,1.001953125,-0.021484375,0.013671875,-0.0078125,0.0,0.0,0.0
36808577,29247,0,1.001953125,-0.02734375,0.017578125,-0.009765625,0.0,0.0,0.0
36809828,29248,0,1.00390625,-0.025390625,0.015625,-0.009765625,0.0,0.0,0.0
36811078,29249,0,1.00390625,-0.02734375,0.015625,-0.01171875,0.0,0.0,0.0
36812329,29250,0,1.0,-0.029296875,0.015625,-0.013671875,0.0,0.0,0.0
36813581,29251,0,1.00390625,-0.02734375,0.017578125,-0.009765625,0.0,0.0,0.0
36814833,29252,0,1.001953125,-0.029296875,0.017578125,-0.01171875,0.0,0.0,0.0
36816083,29253,0,1.005859375,-0.033203125,0.009765625,-0.0234375,0.0,0.0,0.0
36817333,29254,0,1.0078125,-0.029296875,0.0078125,-0.021484375,0.0,0.0,0.0
36818584,29255,0,1.005859375,-0.03515625,0.013671875,-0.021484375,0.0,0.0,0.0
36819835,29256,0,1.0078125,-0.02734375,0.01171875,-0.015625,0.0,0.0,0.0
36821085,29257,0,1.0078125,-0.029296875,0.01171875,-0.017578125,0.0,0.0,0.0
36822336,29258,0,0.990234375,-0.03125,0.015625,-0.015625,0.0,0.0,0.0
36823587,29259,0,0.99609375,-0.037109375,0.0078125,-0.029296875,0.0,0.0,0.0
36824838,29260,0,1.009765625,-0.037109375,0.013671875,-0.0234375,0.0,0.0,0.0
36826090,29261,0,1.005859375,-0.033203125,0.01953125,-0.013671875,0.0,0.0,0.0
36827341,29262,0,1.005859375,-0.03515625,0.013671875,-0.021484375,0.0,0.0,0.0
36828592,29263,0,1.00390625,-0.03515625,0.01171875,-0.0234375,0.0,0.0,0.0
36829844,29264,0,1.001953125,-0.0390625,0.0078125,-0.03125,0.0,0.0,0.0
36831095,29265,0,0.998046875,-0.037109375,0.013671875,-0.0234375,0.0,0.0,0.0
36832346,29266,0,1.0,-0.03515625,0.013671875,-0.021484375,0.0,0.0,0.0
36833597,29267,0,1.00390625,-0.03125,0.01953125,-0.01171875,0.0,0.0,0.0
36834849,29268,0,1.0,-0.02734375,0.017578125,-0.009765625,0.0,0.0,0.0
36836099,29269,0,1.001953125,-0.025390625,0.01953125,-0.005859375,0.0,0.0,0.0
36837351,29270,0,1.00390625,-0.0234375,0.017578125,-0.005859375,0.0,0.0,0.0
36838602,29271,0,1.00390625,-0.025390625,0.017578125,-0.0078125,0.0,0.0,0.0
36839854,29272,0,1.005859375,-0.025390625,0.015625,-0.009765625,0.0,0.0,0.0
36841104,29273,0,1.001953125,-0.03125,0.013671875,-0.017578125,0.0,0.0,0.0
36842354,29274,0,1.0078125,-0.03125,0.017578125,-0.013671875,0.0,0.0,0.0
36843605,29275,0,1.001953125,-0.02734375,0.021484375,-0.005859375,0.0,0.0,0.0
36844855,29276,0,1.005859375,-0.025390625,0.017578125,-0.0078125,0.0,0.0,0.0
36846107,29277,0,1.009765625,-0.021484375,0.013671875,-0.0078125,0.0,0.0,0.0
36847358,29278,0,1.00390625,-0.025390625,0.021484375,-0.00390625,0.0,0.0,0.0
36848609,29279,0,0.994140625,-0.025390625,0.021484375,-0.00390625,0.0,0.0,0.0
36849859,29280,0,1.005859375,-0.0234375,0.021484375,-0.001953125,0.0,0.0,0.0
36851111,29281,0,0.998046875,-0.01953125,0.0234375,0.00390625,0.0,0.0,0.0
36852362,29282,0,1.0,-0.01953125,0.017578125,-0.001953125,0.0,0.0,0.0
36853613,29283,0,1.00390625,-0.017578125,0.015625,-0.001953125,0.0,0.0,0.0
36854865,29284,0,1.001953125,-0.017578125,0.0234375,0.005859375,0.0,0.0,0.0
36856115,29285,0,0.998046875,-0.01953125,0.021484375,0.001953125,0.0,0.0,0.0
36857365,29286,0,0.998046875,-0.017578125,0.015625,-0.001953125,0.0,0.0,0.0
36858617,29287,0,1.001953125,-0.015625,0.01171875,-0.00390625,0.0,0.0,0.0
36859867,29288,0,1.001953125,-0.01953125,0.017578125,-0.001953125,0.0,0.0,0.0
36861118,29289,0,1.005859375,-0.017578125,0.01953125,0.001953125,0.0,0.0,0.0
36862369,29290,0,1.0,-0.0234375,0.01953125,-0.00390625,0.0,0.0,0.0
36863620,29291,0,1.001953125,-0.01953125,0.01953125,0.0,0.0,0.0,0.0
36864871,29292,0,1.0078125,-0.021484375,0.015625,-0.005859375,0.0,0.0,0.0
36866123,29293,0,1.00390625,-0.01953125,0.01953125,0.0,0.0,0.0,0.0
36867374,29294,0,0.998046875,-0.01953125,0.015625,-0.00390625,0.0,0.0,0.0
36868624,29295,0,1.0,-0.01953125,0.021484375,0.001953125,0.0,0.0,0.0
36869875,29296,0,1.001953125,-0.01953125,0.01171875,-0.0078125,0.0,0.0,0.0
36871125,29297,0,1.005859375,-0.021484375,0.01953125,-0.001953125,0.0,0.0,0.0
36872375,29298,0,1.00390625,-0.0234375,0.013671875,-0.009765625,0.0,0.0,0.0
36873626,29299,0,1.0,-0.021484375,0.009765625,-0.01171875,0.0,0.0,0.0
36874877,29300,0,0.998046875,-0.02734375,0.01953125,-0.0078125,0.0,0.0,0.0
36876129,29301,0,1.00390625,-0.02734375,0.021484375,-0.005859375,0.0,0.0,0.0
36877380,29302,0,1.009765625,-0.0234375,0.0078125,-0.015625,0.0,0.0,0.0
36878630,29303,0,1.0078125,-0.025390625,0.009765625,-0.015625,0.0,0.0,0.0
36879881,29304,0,1.009765625,-0.03125,0.009765625,-0.021484375,0.0,0.0,0.0
36881133,29305,0,1.001953125,-0.029296875,0.01171875,-0.017578125,0.0,0.0,0.0
36882384,29306,0,1.00390625,-0.0234375,0.013671875,-0.009765625,0.0,0.0,0.0
36883634,29307,0,1.005859375,-0.025390625,0.015625,-0.009765625,0.0,0.0,0.0
36884886,29308,0,1.001953125,-0.02734375,0.01171875,-0.015625,0.0,0.0,0.0
36886136,29309,0,1.001953125,-0.02734375,0.013671875,-0.013671875,0.0,0.0,0.0
36887386,29310,0,1.0,-0.025390625,0.015625,-0.009765625,0.0,0.0,0.0
36888638,29311,0,1.005859375,-0.029296875,0.009765625,-0.01953125,0.0,0.0,0.0
36889888,29312,0,1.005859375,-0.03125,0.001953125,-0.029296875,0.0,0.0,0.0
36891139,29313,0,1.0078125,-0.03515625,0.015625,-0.01953125,0.0,0.0,0.0
36892391,29314,0,1.0,-0.029296875,0.013671875,-0.015625,0.0,0.0,0.0
36893641,29315,0,1.005859375,-0.03125,0.015625,-0.015625,0.0,0.0,0.0
36894892,29316,0,1.0078125,-0.02734375,0.015625,-0.01171875,0.0,0.0,0.0
36896142,29317,0,1.0,-0.033203125,0.009765625,-0.0234375,0.0,0.0,0.0
36897393,29318,0,0.99609375,-0.025390625,0.01171875,-0.013671875,0.0,0.0,0.0
36898645,29319,0,0.998046875,-0.03515625,0.0078125,-0.02734375,0.0,0.0,0.0
36899895,29320,0,1.01171875,-0.029296875,0.009765625,-0.01953125,0.0,0.0,0.0
36901147,29321,0,1.01953125,-0.03125,0.013671875,-0.017578125,0.0,0.0,0.0
36902397,29322,0,1.001953125,-0.029296875,0.015625,-0.013671875,0.0,0.0,0.0
36903649,29323,0,1.005859375,-0.033203125,0.017578125,-0.015625,0.0,0.0,0.0
36904899,29324,0,1.0,-0.029296875,0.021484375,-0.0078125,0.0,0.0,0.0
36906149,29325,0,1.009765625,-0.03125,0.025390625,-0.005859375,0.0,0.0,0.0
36907399,29326,0,1.00390625,-0.029296875,0.017578125,-0.01171875,0.0,0.0,0.0
36908650,29327,0,1.001953125,-0.025390625,0.013671875,-0.01171875,0.0,0.0,0.0
36909902,29328,0,0.998046875,-0.029296875,0.013671875,-0.015625,0.0,0.0,0.0
36911153,29329,0,1.0078125,-0.02734375,0.013671875,-0.013671875,0.0,0.0,0.0
36912404,29330,0,1.00390625,-0.029296875,0.017578125,-0.01171875,0.0,0.0,0.0
36913654,29331,0,1.005859375,-0.03125,0.015625,-0.015625,0.0,0.0,0.0
36914904,29332,0,1.001953125,-0.02734375,0.0078125,-0.01953125,0.0,0.0,0.0
36916155,29333,0,0.998046875,-0.02734375,0.01953125,-0.0078125,0.0,0.0,0.0
36917407,29334,0,1.005859375,-0.01953125,0.013671875,-0.005859375,0.0,0.0,0.0
36918657,29335,0,1.0,-0.017578125,0.015625,-0.001953125,0.0,0.0,0.0
36919909,29336,0,0.998046875,-0.017578125,0.015625,-0.001953125,0.0,0.0,0.0
36921159,29337,0,1.005859375,-0.025390625,0.017578125,-0.0078125,0.0,0.0,0.0
36922409,29338,0,1.0078125,-0.02734375,0.017578125,-0.009765625,0.0,0.0,0.0
36923661,29339,0,1.005859375,-0.0234375,0.015625,-0.0078125,0.0,0.0,0.0
36924911,29340,0,1.001953125,-0.02734375,0.0234375,-0.00390625,0.0,0.0,0.0
36926161,29341,0,1.005859375,-0.017578125,0.021484375,0.00390625,0.0,0.0,0.0
36927411,29342,0,1.001953125,-0.01953125,0.0234375,0.00390625,0.0,0.0,0.0
36928663,29343,0,1.005859375,-0.01953125,0.01171875,-0.0078125,0.0,0.0,0.0
36929913,29344,0,1.00390625,-0.017578125,0.017578125,0.0,0.0,0.0,0.0
36931164,29345,0,1.0078125,-0.01171875,0.021484375,0.009765625,0.0,0.0,0.0
36932415,29346,0,1.009765625,-0.01953125,0.01171875,-0.0078125,0.0,0.0,0.0
36933666,29347,0,1.005859375,-0.0234375,0.013671875,-0.009765625,0.0,0.0,0.0
36934916,29348,0,0.994140625,-0.021484375,0.015625,-0.005859375,0.0,0.0,0.0
36936167,29349,0,1.00390625,-0.0234375,0.01953125,-0.00390625,0.0,0.0,0.0
36937417,29350,0,1.0078125,-0.0234375,0.015625,-0.0078125,0.0,0.0,0.0
36938668,29351,0,1.0078125,-0.029296875,0.009765625,-0.01953125,0.0,0.0,0.0
36939920,29352,0,1.005859375,-0.02734375,0.009765625,-0.017578125,0.0,0.0,0.0
36941171,29353,0,1.0,-0.02734375,0.01171875,-0.015625,0.0,0.0,0.0
36942421,29354,0,1.00390625,-0.0234375,0.015625,-0.0078125,0.0,0.0,0.0
36943672,29355,0,1.001953125,-0.02734375,0.021484375,-0.005859375,0.0,0.0,0.0
36944924,29356,0,1.001953125,-0.025390625,0.01953125,-0.005859375,0.0,0.0,0.0
36946174,29357,0,1.005859375,-0.025390625,0.013671875,-0.01171875,0.0,0.0,0.0
36947425,29358,0,1.00390625,-0.029296875,0.017578125,-0.01171875,0.0,0.0,0.0
36948677,29359,0,1.0078125,-0.03125,0.017578125,-0.013671875,0.0,0.0,0.0
36949927,29360,0,1.0078125,-0.029296875,0.015625,-0.013671875,0.0,0.0,0.0
36951177,29361,0,1.01171875,-0.029296875,0.01171875,-0.017578125,0.0,0.0,0.0
36952429,29362,0,1.0078125,-0.021484375,0.017578125,-0.00390625,0.0,0.0,0.0
36953679,29363,0,1.0078125,-0.0234375,0.01171875,-0.01171875,0.0,0.0,0.0
36954931,29364,0,1.0078125,-0.02734375,0.015625,-0.01171875,0.0,0.0,0.0
36956181,29365,0,1.001953125,-0.033203125,0.013671875,-0.01953125,0.0,0.0,0.0
36957431,29366,0,1.01171875,-0.029296875,0.017578125,-0.01171875,0.0,0.0,0.0
36958683,29367,0,1.0,-0.029296875,0.01171875,-0.017578125,0.0,0.0,0.0
36959933,29368,0,1.001953125,-0.02734375,0.009765625,-0.017578125,0.0,0.0,0.0
36961183,29369,0,1.0,-0.029296875,0.01171875,-0.017578125,0.0,0.0,0.0
36962434,29370,0,1.001953125,-0.029296875,0.017578125,-0.01171875,0.0,0.0,0.0
36963685,29371,0,1.00390625,-0.029296875,0.01171875,-0.017578125,0.0,0.0,0.0
36964936,29372,0,1.001953125,-0.029296875,0.015625,-0.013671875,0.0,0.0,0.0
36966186,29373,0,1.001953125,-0.033203125,0.01171875,-0.021484375,0.0,0.0,0.0
36967437,29374,0,1.005859375,-0.029296875,0.01953125,-0.009765625,0.0,0.0,0.0
36968687,29375,0,0.998046875,-0.033203125,0.015625,-0.017578125,0.0,0.0,0.0
36969937,29376,0,1.001953125,-0.02734375,0.017578125,-0.009765625,0.0,0.0,0.0
36971188,29377,0,1.0078125,-0.0234375,0.015625,-0.0078125,0.0,0.0,0.0
36972440,29378,0,1.005859375,-0.029296875,0.01171875,-0.017578125,0.0,0.0,0.0
36973690,29379,0,1.00390625,-0.0234375,0.01171875,-0.01171875,0.0,0.0,0.0
36974942,29380,0,1.00390625,-0.02734375,0.013671875,-0.013671875,0.0,0.0,0.0
36976193,29381,0,1.009765625,-0.0234375,0.017578125,-0.005859375,0.0,0.0,0.0
36977445,29382,0,1.00390625,-0.029296875,0.017578125,-0.01171875,0.0,0.0,0.0
36978695,29383,0,0.998046875,-0.017578125,0.01953125,0.001953125,0.0,0.0,0.0
36979947,29384,0,1.001953125,-0.033203125,0.017578125,-0.015625,0.0,0.0,0.0
36981198,29385,0,1.001953125,-0.025390625,0.017578125,-0.0078125,0.0,0.0,0.0
36982450,29386,0,1.0078125,-0.025390625,0.009765625,-0.015625,0.0,0.0,0.0
36983700,29387,0,0.998046875,-0.0234375,0.021484375,-0.001953125,0.0,0.0,0.0
36984952,29388,0,0.998046875,-0.0234375,0.021484375,-0.001953125,0.0,0.0,0.0
36986203,29389,0,1.015625,-0.02734375,0.0234375,-0.00390625,0.0,0.0,0.0
36987454,29390,0,0.99609375,-0.0234375,0.015625,-0.0078125,0.0,0.0,0.0
36988705,29391,0,1.0,-0.01953125,0.01171875,-0.0078125,0.0,0.0,0.0
36989957,29392,0,1.001953125,-0.017578125,0.015625,-0.001953125,0.0,0.0,0.0
36991207,29393,0,1.00390625,-0.01953125,0.013671875,-0.005859375,0.0,0.0,0.0
36992459,29394,0,1.00390625,-0.021484375,0.017578125,-0.00390625,0.0,0.0,0.0
36993709,29395,0,1.00390625,-0.0234375,0.017578125,-0.005859375,0.0,0.0,0.0
36994959,29396,0,1.005859375,-0.021484375,0.015625,-0.005859375,0.0,0.0,0.0
36996209,29397,0,1.00390625,-0.0234375,0.015625,-0.0078125,0.0,0.0,0.0
36997459,29398,0,1.0,-0.0234375,0.01953125,-0.00390625,0.0,0.0,0.0
36998711,29399,0,1.0078125,-0.0234375,0.017578125,-0.005859375,0.0,0.0,0.0
36999961,29400,0,1.0,-0.021484375,0.021484375,0.0,0.0,0.0,0.0
37001213,29401,0,1.005859375,-0.0234375,0.021484375,-0.001953125,0.0,0.0,0.0
37002464,29402,0,1.0078125,-0.0234375,0.0234375,0.0,0.0,0.0,0.0
37003715,29403,0,1.00390625,-0.025390625,0.015625,-0.009765625,0.0,0.0,0.0
37004966,29404,0,1.00390625,-0.021484375,0.013671875,-0.0078125,0.0,0.0,0.0
37006216,29405,0,1.001953125,-0.0234375,0.005859375,-0.017578125,0.0,0.0,0.0
37007467,29406,0,1.0078125,-0.02734375,0.021484375,-0.005859375,0.0,0.0,0.0
37008718,29407,0,1.00390625,-0.025390625,0.01953125,-0.005859375,0.0,0.0,0.0
37009968,29408,0,1.00390625,-0.02734375,0.015625,-0.01171875,0.0,0.0,0.0
37011219,29409,0,1.0,-0.02734375,0.017578125,-0.009765625,0.0,0.0,0.0
37012470,29410,0,0.998046875,-0.0234375,0.013671875,-0.009765625,0.0,0.0,0.0
37013721,29411,0,0.99609375,-0.02734375,0.017578125,-0.009765625,0.0,0.0,0.0
37014971,29412,0,1.0,-0.025390625,0.013671875,-0.01171875,0.0,0.0,0.0
37016223,29413,0,1.005859375,-0.029296875,0.017578125,-0.01171875,0.0,0.0,0.0
37017473,29414,0,1.00390625,-0.029296875,0.013671875,-0.015625,0.0,0.0,0.0
37018723,29415,0,1.001953125,-0.03125,0.015625,-0.015625,0.0,0.0,0.0
37019975,29416,0,1.005859375,-0.033203125,0.017578125,-0.015625,0.0,0.0,0.0
37021226,29417,0,1.00390625,-0.03515625,0.01171875,-0.0234375,0.0,0.0,0.0
37022476,29418,0,1.00390625,-0.03125,0.01953125,-0.01171875,0.0,0.0,0.0
37023728,29419,0,1.005859375,-0.033203125,0.009765625,-0.0234375,0.0,0.0,0.0
37024979,29420,0,1.00390625,-0.033203125,0.015625,-0.017578125,0.0,0.0,0.0
37026229,29421,0,0.998046875,-0.029296875,0.015625,-0.013671875,0.0,0.0,0.0
37027481,29422,0,1.005859375,-0.03125,0.01171875,-0.01953125,0.0,0.0,0.0
37028731,29423,0,1.0,-0.03125,0.01171875,-0.01953125,0.0,0.0,0.0
37029981,29424,0,1.00390625,-0.033203125,0.015625,-0.017578125,0.0,0.0,0.0
37031232,29425,0,1.00390625,-0.029296875,0.017578125,-0.01171875,0.0,0.0,0.0
37032483,29426,0,1.009765625,-0.03125,0.015625,-0.015625,0.0,0.0,0.0
37033734,29427,0,1.0078125,-0.03515625,0.015625,-0.01953125,0.0,0.0,0.0
37034986,29428,0,1.00390625,-0.029296875,0.015625,-0.013671875,0.0,0.0,0.0
37036236,29429,0,1.001953125,-0.025390625,0.017578125,-0.0078125,0.0,0.0,0.0
37037486,29430,0,0.998046875,-0.029296875,0.021484375,-0.0078125,0.0,0.0,0.0
37038737,29431,0,0.998046875,-0.025390625,0.01953125,-0.005859375,0.0,0.0,0.0
37039987,29432,0,1.005859375,-0.025390625,0.017578125,-0.0078125,0.0,0.0,0.0
37041238,29433,0,1.005859375,-0.029296875,0.01171875,-0.017578125,0.0,0.0,0.0
37042489,29434,0,1.001953125,-0.0234375,0.017578125,-0.005859375,0.0,0.0,0.0
37043740,29435,0,1.009765625,-0.02734375,0.013671875,-0.013671875,0.0,0.0,0.0
37044991,29436,0,1.0,-0.0234375,0.017578125,-0.005859375,0.0,0.0,0.0
37046241,29437,0,0.998046875,-0.0234375,0.013671875,-0.009765625,0.0,0.0,0.0
37047492,29438,0,1.00390625,-0.021484375,0.0234375,0.001953125,0.0,0.0,0.0
37048744,29439,0,1.0078125,-0.021484375,0.013671875,-0.0078125,0.0,0.0,0.0
37049994,29440,0,1.005859375,-0.021484375,0.021484375,0.0,0.0,0.0,0.0
37051245,29441,0,1.009765625,-0.025390625,0.01953125,-0.005859375,0.0,0.0,0.0
37052496,29442,0,1.00390625,-0.021484375,0.009765625,-0.01171875,0.0,0.0,0.0
37053747,29443,0,1.00390625,-0.01953125,0.017578125,-0.001953125,0.0,0.0,0.0
37054998,29444,0,1.001953125,-0.01953125,0.013671875,-0.005859375,0.0,0.0,0.0
37056249,29445,0,1.00390625,-0.025390625,0.013671875,-0.01171875,0.0,0.0,0.0
37057499,29446,0,1.001953125,-0.021484375,0.015625,-0.005859375,0.0,0.0,0.0
37058751,29447,0,1.001953125,-0.025390625,0.017578125,-0.0078125,0.0,0.0,0.0
37060002,29448,0,0.998046875,-0.01953125,0.015625,-0.00390625,0.0,0.0,0.0
37061253,29449,0,1.015625,-0.021484375,0.021484375,0.0,0.0,0.0,0.0
37062503,29450,0,1.0078125,-0.015625,0.015625,0.0,0.0,0.0,0.0
37063755,29451,0,1.00390625,-0.025390625,0.021484375,-0.00390625,0.0,0.0,0.0
37065005,29452,0,1.005859375,-0.0234375,0.013671875,-0.009765625,0.0,0.0,0.0
37066256,29453,0,1.0078125,-0.021484375,0.01171875,-0.009765625,0.0,0.0,0.0
37067506,29454,0,1.0,-0.02734375,0.017578125,-0.009765625,0.0,0.0,0.0
37068757,29455,0,1.001953125,-0.01953125,0.015625,-0.00390625,0.0,0.0,0.0
37070008,29456,0,1.0078125,-0.0234375,0.017578125,-0.005859375,0.0,0.0,0.0
37071258,29457,0,1.005859375,-0.0234375,0.013671875,-0.009765625,0.0,0.0,0.0
37072508,29458,0,1.0,-0.021484375,0.015625,-0.005859375,0.0,0.0,0.0
37073759,29459,0,1.001953125,-0.029296875,0.015625,-0.013671875,0.0,0.0,0.0
37075009,29460,0,1.0,-0.025390625,0.015625,-0.009765625,0.0,0.0,0.0
37076259,29461,0,1.005859375,-0.025390625,0.0078125,-0.017578125,0.0,0.0,0.0
37077510,29462,0,1.00390625,-0.0234375,0.005859375,-0.017578125,0.0,0.0,0.0
37078762,29463,0,1.00390625,-0.025390625,0.01953125,-0.005859375,0.0,0.0,0.0
37080012,29464,0,1.009765625,-0.025390625,0.01171875,-0.013671875,0.0,0.0,0.0
37081271,29465,0,1.009765625,-0.025390625,0.017578125,-0.0078125,0.0,0.0,0.0
37082521,29466,0,1.0078125,-0.033203125,0.01171875,-0.021484375,0.0,0.0,0.0
37083773,29467,0,1.005859375,-0.033203125,0.01171875,-0.021484375,0.0,0.0,0.0
37085023,29468,0,0.998046875,-0.02734375,0.01171875,-0.015625,0.0,0.0,0.0
37086274,29469,0,1.001953125,-0.02734375,0.015625,-0.01171875,0.0,0.0,0.0
37087525,29470,0,0.99609375,-0.029296875,0.01171875,-0.017578125,0.0,0.0,1.2623789582992178e+31
37090026,29472,0,1.005859375,-0.03125,0.015625,-0.015625,0.0,0.0,0.0
37091276,29473,0,1.017578125,-0.025390625,0.015625,-0.009765625,0.0,0.0,0.0
37092527,29474,0,1.005859375,-0.02734375,0.015625,-0.01171875,0.0,0.0,0.0
37093778,29475,0,1.00390625,-0.03125,0.005859375,-0.025390625,0.0,0.0,0.0
37095029,29476,0,1.00390625,-0.033203125,0.01171875,-0.021484375,0.0,0.0,0.0
37096280,29477,0,1.005859375,-0.03125,0.01171875,-0.01953125,0.0,0.0,0.0
37097531,29478,0,1.0,-0.03125,0.013671875,-0.017578125,0.0,0.0,0.0
37098783,29479,0,1.001953125,-0.02734375,0.013671875,-0.013671875,0.0,0.0,0.0
37100034,29480,0,1.0,-0.029296875,0.015625,-0.013671875,0.0,0.0,0.0
37101286,29481,0,1.00390625,-0.02734375,0.009765625,-0.017578125,0.0,0.0,0.0
37102537,29482,0,1.005859375,-0.02734375,0.015625,-0.01171875,0.0,0.0,0.0
37103789,29483,0,1.005859375,-0.025390625,0.009765625,-0.015625,0.0,0.0,0.0
37105039,29484,0,1.001953125,-0.02734375,0.017578125,-0.009765625,0.0,0.0,0.0
37106289,29485,0,1.0078125,-0.02734375,0.013671875,-0.013671875,0.0,0.0,0.0
37107541,29486,0,1.005859375,-0.025390625,0.021484375,-0.00390625,0.0,0.0,0.0
37108792,29487,0,1.001953125,-0.021484375,0.021484375,0.0,0.0,0.0,0.0
37110044,29488,0,1.001953125,-0.0234375,0.017578125,-0.005859375,0.0,0.0,0.0
37111294,29489,0,1.0078125,-0.025390625,0.017578125,-0.0078125,0.0,0.0,0.0
37112544,29490,0,1.01171875,-0.02734375,0.017578125,-0.009765625,0.0,0.0,0.0
37113795,29491,0,1.0078125,-0.025390625,0.015625,-0.009765625,0.0,0.0,0.0
37115045,29492,0,1.0,-0.01953125,0.01171875,-0.0078125,0.0,0.0,0.0
37116295,29493,0,1.015625,-0.021484375,0.015625,-0.005859375,0.0,0.0,0.0
37117546,29494,0,1.009765625,-0.025390625,0.015625,-0.009765625,0.0,0.0,0.0
37118797,29495,0,1.001953125,-0.021484375,0.01953125,-0.001953125,0.0,0.0,0.0
37120048,29496,0,1.005859375,-0.021484375,0.013671875,-0.0078125,0.0,0.0,0.0
37121299,29497,0,1.005859375,-0.021484375,0.021484375,0.0,0.0,0.0,0.0
37122550,29498,0,1.00390625,-0.025390625,0.021484375,-0.00390625,0.0,0.0,0.0
37123800,29499,0,1.005859375,-0.025390625,0.013671875,-0.01171875,0.0,0.0,0.0
37125052,29500,0,1.005859375,-0.025390625,0.017578125,-0.0078125,0.0,0.0,0.0
37126303,29501,0,1.00390625,-0.025390625,0.013671875,-0.01171875,0.0,0.0,0.0
37127554,29502,0,1.0,-0.03125,0.015625,-0.015625,0.0,0.0,0.0
37128805,29503,0,1.0078125,-0.025390625,0.017578125,-0.0078125,0.0,0.0,0.0
37130057,29504,0,1.00390625,-0.0234375,0.013671875,-0.009765625,0.0,0.0,0.0
37131308,29505,0,0.99609375,-0.021484375,0.015625,-0.005859375,0.0,0.0,0.0
37132560,29506,0,0.994140625,-0.021484375,0.01953125,-0.001953125,0.0,0.0,0.0
37133811,29507,0,1.005859375,-0.015625,0.01953125,0.00390625,0.0,0.0,0.0
37135063,29508,0,1.005859375,-0.013671875,0.017578125,0.00390625,0.0,0.0,0.0
37136314,29509,0,1.005859375,-0.015625,0.01953125,0.00390625,0.0,0.0,0.0
37137565,29510,0,1.009765625,-0.0234375,0.015625,-0.0078125,0.0,0.0,0.0
37138816,29511,0,1.00390625,-0.02734375,0.021484375,-0.005859375,0.0,0.0,0.0
37140066,29512,0,1.001953125,-0.03125,0.01953125,-0.01171875,0.0,0.0,0.0
37141318,29513,0,0.990234375,-0.03125,0.015625,-0.015625,0.0,0.0,0.0
37142569,29514,0,1.00390625,-0.025390625,0.015625,-0.009765625,0.0,0.0,0.0
37143819,29515,0,0.99609375,-0.033203125,0.013671875,-0.01953125,0.0,0.0,0.0
37145070,29516,0,1.001953125,-0.03125,0.0078125,-0.0234375,0.0,0.0,0.0
37146321,29517,0,1.001953125,-0.02734375,0.01953125,-0.0078125,0.0,0.0,0.0
37147572,29518,0,1.001953125,-0.0234375,0.017578125,-0.005859375,0.0,0.0,0.0
37148823,29519,0,1.005859375,-0.0234375,0.013671875,-0.009765625,0.0,0.0,0.0
37150074,29520,0,1.0,-0.025390625,0.015625,-0.009765625,0.0,0.0,0.0
37151325,29521,0,1.001953125,-0.025390625,0.017578125,-0.0078125,0.0,0.0,0.0
37152575,29522,0,1.005859375,-0.0234375,0.015625,-0.0078125,0.0,0.0,0.0
37153825,29523,0,1.0078125,-0.02734375,0.01171875,-0.015625,0.0,0.0,0.0
37155076,29524,0,1.00390625,-0.03125,0.01171875,-0.01953125,0.0,0.0,0.0
37156326,29525,0,1.005859375,-0.02734375,0.013671875,-0.013671875,0.0,0.0,0.0
37157577,29526,0,1.0,-0.03125,0.013671875,-0.017578125,0.0,0.0,0.0
37158828,29527,0,1.0,-0.03125,0.013671875,-0.017578125,0.0,0.0,0.0
37160078,29528,0,1.0078125,-0.02734375,0.015625,-0.01171875,0.0,0.0,0.0
37161329,29529,0,1.0078125,-0.029296875,0.013671875,-0.015625,0.0,0.0,0.0
37162581,29530,0,1.001953125,-0.029296875,0.0078125,-0.021484375,0.0,0.0,0.0
37163833,29531,0,1.00390625,-0.029296875,0.015625,-0.013671875,0.0,0.0,0.0
37165083,29532,0,1.00390625,-0.021484375,0.01953125,-0.001953125,0.0,0.0,0.0
37166333,29533,0,1.00390625,-0.025390625,0.015625,-0.009765625,0.0,0.0,0.0
37167584,29534,0,1.001953125,-0.0234375,0.015625,-0.0078125,0.0,0.0,0.0
37168835,29535,0,1.00390625,-0.025390625,0.0078125,-0.017578125,0.0,0.0,0.0
37170085,29536,0,1.009765625,-0.033203125,0.01953125,-0.013671875,0.0,0.0,0.0
37171336,29537,0,1.009765625,-0.025390625,0.017578125,-0.0078125,0.0,0.0,0.0
37172587,29538,0,1.0,-0.025390625,0.015625,-0.009765625,0.0,0.0,0.0
37173838,29539,0,1.001953125,-0.02734375,0.01171875,-0.015625,0.0,0.0,0.0
37175090,29540,0,1.005859375,-0.0234375,0.01953125,-0.00390625,0.0,0.0,0.0
37176341,29541,0,1.01171875,-0.02734375,0.01171875,-0.015625,0.0,0.0,0.0
37177592,29542,0,1.001953125,-0.021484375,0.009765625,-0.01171875,0.0,0.0,0.0
37178844,29543,0,1.005859375,-0.0234375,0.017578125,-0.005859375,0.0,0.0,0.0
37180095,29544,0,1.00390625,-0.0234375,0.017578125,-0.005859375,0.0,0.0,0.0
37181346,29545,0,1.0,-0.0234375,0.013671875,-0.009765625,0.0,0.0,0.0
37182597,29546,0,1.00390625,-0.0234375,0.015625,-0.0078125,0.0,0.0,0.0
37183849,29547,0,1.005859375,-0.025390625,0.015625,-0.009765625,0.0,0.0,0.0
37185099,29548,0,1.0,-0.025390625,0.009765625,-0.015625,0.0,0.0,0.0
37186351,29549,0,1.00390625,-0.01953125,0.013671875,-0.005859375,0.0,0.0,0.0
37187602,29550,0,1.005859375,-0.025390625,0.015625,-0.009765625,0.0,0.0,0.0
37188854,29551,0,1.001953125,-0.025390625,0.013671875,-0.01171875,0.0,0.0,0.0
37190104,29552,0,1.001953125,-0.025390625,0.01171875,-0.013671875,0.0,0.0,0.0
37191354,29553,0,1.001953125,-0.025390625,0.017578125,-0.0078125,0.0,0.0,0.0
37192605,29554,0,1.009765625,-0.021484375,0.015625,-0.005859375,0.0,0.0,0.0
37193855,29555,0,1.0078125,-0.025390625,0.01953125,-0.005859375,0.0,0.0,0.0
37195107,29556,0,1.001953125,-0.025390625,0.009765625,-0.015625,0.0,0.0,0.0
37196358,29557,0,1.0078125,-0.025390625,0.013671875,-0.01171875,0.0,0.0,0.0
37197609,29558,0,1.013671875,-0.01953125,0.013671875,-0.005859375,0.0,0.0,0.0
37198859,29559,0,1.00390625,-0.0234375,0.017578125,-0.005859375,0.0,0.0,0.0
37200111,29560,0,1.00390625,-0.025390625,0.01953125,-0.005859375,0.0,0.0,0.0
37201362,29561,0,1.009765625,-0.02734375,0.017578125,-0.009765625,0.0,0.0,0.0
37202613,29562,0,1.009765625,-0.021484375,0.01953125,-0.001953125,0.0,0.0,0.0
37203865,29563,0,1.00390625,-0.017578125,0.01171875,-0.005859375,0.0,0.0,0.0
37205115,29564,0,0.998046875,-0.025390625,0.021484375,-0.00390625,0.0,0.0,0.0
37206365,29565,0,1.00390625,-0.0234375,0.01953125,-0.00390625,0.0,0.0,0.0
37207617,29566,0,1.005859375,-0.021484375,0.009765625,-0.01171875,0.0,0.0,0.0
37208867,29567,0,1.005859375,-0.02734375,0.013671875,-0.013671875,0.0,0.0,0.0
37210118,29568,0,1.0078125,-0.0234375,0.013671875,-0.009765625,0.0,0.0,0.0
37211369,29569,0,1.001953125,-0.025390625,0.013671875,-0.01171875,0.0,0.0,0.0
37212620,29570,0,1.005859375,-0.025390625,0.015625,-0.009765625,0.0,0.0,0.0
37213871,29571,0,1.00390625,-0.02734375,0.015625,-0.01171875,0.0,0.0,0.0
37215123,29572,0,1.0,-0.02734375,0.017578125,-0.009765625,0.0,0.0,0.0
37216374,29573,0,1.0,-0.029296875,0.01171875,-0.017578125,0.0,0.0,0.0
37217624,29574,0,1.005859375,-0.025390625,0.009765625,-0.015625,0.0,0.0,0.0
37218875,29575,0,1.0078125,-0.03125,0.013671875,-0.017578125,0.0,0.0,0.0
37220125,29576,0,1.005859375,-0.033203125,0.01171875,-0.021484375,0.0,0.0,0.0
37221375,29577,0,1.0078125,-0.025390625,0.01171875,-0.013671875,0.0,0.0,0.0
37222626,29578,0,1.001953125,-0.033203125,0.01171875,-0.021484375,0.0,0.0,0.0
37223877,29579,0,1.0078125,-0.029296875,0.009765625,-0.01953125,0.0,0.0,0.0
37225129,29580,0,0.994140625,-0.025390625,0.01171875,-0.013671875,0.0,0.0,0.0
37226380,29581,0,1.001953125,-0.021484375,0.017578125,-0.00390625,0.0,0.0,0.0
37227630,29582,0,1.001953125,-0.029296875,0.021484375,-0.0078125,0.0,0.0,0.0
37228881,29583,0,1.001953125,-0.0234375,0.0078125,-0.015625,0.0,0.0,0.0
37230133,29584,0,1.015625,-0.025390625,0.015625,-0.009765625,0.0,0.0,0.0
37231384,29585,0,1.00390625,-0.02734375,0.013671875,-0.013671875,0.0,0.0,0.0
37232634,29586,0,1.0078125,-0.025390625,0.013671875,-0.01171875,0.0,0.0,0.0
37233886,29587,0,1.00390625,-0.0234375,0.015625,-0.0078125,0.0,0.0,0.0
37235136,29588,0,1.005859375,-0.0234375,0.015625,-0.0078125,0.0,0.0,0.0
37236386,29589,0,1.001953125,-0.02734375,0.013671875,-0.013671875,0.0,0.0,0.0
37237638,29590,0,1.001953125,-0.025390625,0.015625,-0.009765625,0.0,0.0,0.0
37238888,29591,0,1.00390625,-0.025390625,0.015625,-0.009765625,0.0,0.0,0.0
37240139,29592,0,1.005859375,-0.029296875,0.017578125,-0.01171875,0.0,0.0,0.0
37241391,29593,0,1.0078125,-0.021484375,0.013671875,-0.0078125,0.0,0.0,0.0
37242641,29594,0,1.001953125,-0.0234375,0.017578125,-0.005859375,0.0,0.0,0.0
37243892,29595,0,0.99609375,-0.0234375,0.015625,-0.0078125,0.0,0.0,0.0
37245142,29596,0,1.0,-0.021484375,0.01953125,-0.001953125,0.0,0.0,0.0
37246393,29597,0,1.00390625,-0.0234375,0.015625,-0.0078125,0.0,0.0,0.0
37247645,29598,0,1.005859375,-0.02734375,0.017578125,-0.009765625,0.0,0.0,0.0
37248895,29599,0,1.009765625,-0.0234375,0.017578125,-0.005859375,0.0,0.0,0.0
37250147,29600,0,0.99609375,-0.021484375,0.021484375,0.0,0.0,0.0,0.0
37251397,29601,0,1.00390625,-0.0234375,0.017578125,-0.005859375,0.0,0.0,0.0
37252649,29602,0,0.99609375,-0.0234375,0.015625,-0.0078125,0.0,0.0,0.0
37253899,29603,0,0.998046875,-0.01953125,0.017578125,-0.001953125,0.0,0.0,0.0
37255149,29604,0,0.99609375,-0.0234375,0.017578125,-0.005859375,0.0,0.0,0.0
37256399,29605,0,0.990234375,-0.021484375,0.01953125,-0.001953125,0.0,0.0,0.0
37257650,29606,0,1.005859375,-0.029296875,0.01953125,-0.009765625,0.0,0.0,0.0
37258902,29607,0,1.005859375,-0.025390625,0.01953125,-0.005859375,0.0,0.0,0.0
37260153,29608,0,1.001953125,-0.0234375,0.015625,-0.0078125,0.0,0.0,0.0
37261404,29609,0,1.005859375,-0.0234375,0.017578125,-0.005859375,0.0,0.0,0.0
37262654,29610,0,1.001953125,-0.02734375,0.015625,-0.01171875,0.0,0.0,0.0
37263904,29611,0,1.0,-0.03515625,0.009765625,-0.025390625,0.0,0.0,0.0
37265155,29612,0,1.001953125,-0.025390625,0.015625,-0.009765625,0.0,0.0,0.0
37266407,29613,0,1.009765625,-0.029296875,0.021484375,-0.0078125,0.0,0.0,0.0
37267657,29614,0,0.99609375,-0.029296875,0.017578125,-0.01171875,0.0,0.0,0.0
37268909,29615,0,1.001953125,-0.02734375,0.017578125,-0.009765625,0.0,0.0,0.0
37270159,29616,0,1.0,-0.02734375,0.017578125,-0.009765625,0.0,0.0,0.0
37271409,29617,0,1.005859375,-0.03125,0.013671875,-0.017578125,0.0,0.0,0.0
37272661,29618,0,1.009765625,-0.025390625,0.01171875,-0.013671875,0.0,0.0,0.0
37273911,29619,0,1.005859375,-0.025390625,0.0078125,-0.017578125,0.0,0.0,0.0
37275161,29620,0,1.013671875,-0.029296875,0.015625,-0.013671875,0.0,0.0,0.0
37276411,29621,0,1.00390625,-0.02734375,0.01953125,-0.0078125,0.0,0.0,0.0
37277663,29622,0,0.998046875,-0.025390625,0.015625,-0.009765625,0.0,0.0,0.0
37278913,29623,0,0.994140625,-0.025390625,0.013671875,-0.01171875,0.0,0.0,0.0
37280164,29624,0,1.009765625,-0.02734375,0.017578125,-0.009765625,0.0,0.0,0.0
37281415,29625,0,0.998046875,-0.029296875,0.017578125,-0.01171875,0.0,0.0,0.0
37282666,29626,0,1.005859375,-0.02734375,0.017578125,-0.009765625,0.0,0.0,0.0
37283916,29627,0,1.013671875,-0.029296875,0.01953125,-0.009765625,0.0,0.0,0.0
37285167,29628,0,1.017578125,-0.03125,0.015625,-0.015625,0.0,0.0,0.0
37286417,29629,0,1.001953125,-0.029296875,0.01953125,-0.009765625,0.0,0.0,0.0
37287668,29630,0,0.99609375,-0.0234375,0.01953125,-0.00390625,0.0,0.0,0.0
37288920,29631,0,0.998046875,-0.029296875,0.013671875,-0.015625,0.0,0.0,0.0
37290171,29632,0,1.0,-0.029296875,0.021484375,-0.0078125,0.0,0.0,0.0
37291421,29633,0,1.00390625,-0.02734375,0.009765625,-0.017578125,0.0,0.0,0.0
37292672,29634,0,1.0078125,-0.029296875,0.01171875,-0.017578125,0.0,0.0,0.0
37293924,29635,0,1.00390625,-0.029296875,0.01171875,-0.017578125,0.0,0.0,0.0
37295174,29636,0,1.005859375,-0.0234375,0.017578125,-0.005859375,0.0,0.0,0.0
37296425,29637,0,1.00390625,-0.0234375,0.017578125,-0.005859375,0.0,0.0,0.0
37297677,29638,0,0.998046875,-0.029296875,0.01953125,-0.009765625,0.0,0.0,0.0
37298927,29639,0,1.00390625,-0.025390625,0.01953125,-0.005859375,0.0,0.0,0.0
37300177,29640,0,1.005859375,-0.029296875,0.013671875,-0.015625,0.0,0.0,0.0
37301429,29641,0,1.009765625,-0.029296875,0.009765625,-0.01953125,0.0,0.0,0.0
37302679,29642,0,1.001953125,-0.029296875,0.021484375,-0.0078125,0.0,0.0,0.0
37303931,29643,0,0.994140625,-0.021484375,0.017578125,-0.00390625,0.0,0.0,0.0
37305181,29644,0,1.00390625,-0.0234375,0.013671875,-0.009765625,0.0,0.0,0.0
37306431,29645,0,1.009765625,-0.025390625,0.017578125,-0.0078125,0.0,0.0,0.0
37307683,29646,0,1.001953125,-0.025390625,0.015625,-0.009765625,0.0,0.0,0.0
37308933,29647,0,0.998046875,-0.021484375,0.013671875,-0.0078125,0.0,0.0,0.0
37310183,29648,0,1.017578125,-0.0234375,0.013671875,-0.009765625,0.0,0.0,0.0
37311434,29649,0,1.005859375,-0.021484375,0.0234375,0.001953125,0.0,0.0,0.0
37312685,29650,0,1.00390625,-0.025390625,0.009765625,-0.015625,0.0,0.0,0.0
37313936,29651,0,1.0078125,-0.0234375,0.013671875,-0.009765625,0.0,0.0,0.0
37315186,29652,0,0.998046875,-0.021484375,0.01171875,-0.009765625,0.0,0.0,0.0
37316437,29653,0,1.00390625,-0.0234375,0.015625,-0.0078125,0.0,0.0,0.0
37317687,29654,0,1.0078125,-0.025390625,0.017578125,-0.0078125,0.0,0.0,0.0
37318937,29655,0,0.998046875,-0.02734375,0.009765625,-0.017578125,0.0,0.0,0.0
37320188,29656,0,1.017578125,-0.021484375,0.013671875,-0.0078125,0.0,0.0,0.0
37321440,29657,0,1.001953125,-0.025390625,0.013671875,-0.01171875,0.0,0.0,0.0
37322690,29658,0,1.00390625,-0.021484375,0.017578125,-0.00390625,0.0,0.0,0.0
37323942,29659,0,1.001953125,-0.0234375,0.009765625,-0.013671875,0.0,0.0,0.0
37325193,29660,0,1.005859375,-0.0234375,0.015625,-0.0078125,0.0,0.0,0.0
37326445,29661,0,0.998046875,-0.02734375,0.0078125,-0.01953125,0.0,0.0,0.0
37327695,29662,0,1.001953125,-0.021484375,0.0078125,-0.013671875,0.0,0.0,0.0
37328947,29663,0,1.001953125,-0.017578125,0.013671875,-0.00390625,0.0,0.0,0.0
37330198,29664,0,1.01171875,-0.03125,0.015625,-0.015625,0.0,0.0,0.0
37331450,29665,0,1.015625,-0.025390625,0.009765625,-0.015625,0.0,0.0,0.0
37332700,29666,0,0.9921875,-0.0234375,0.015625,-0.0078125,0.0,0.0,0.0
37333952,29667,0,0.998046875,-0.02734375,0.021484375,-0.005859375,0.0,0.0,0.0
37335203,29668,0,1.005859375,-0.03125,0.009765625,-0.021484375,0.0,0.0,0.0
37336454,29669,0,1.00390625,-0.029296875,0.017578125,-0.01171875,0.0,0.0,0.0
37337705,29670,0,1.01171875,-0.025390625,0.013671875,-0.01171875,0.0,0.0,0.0
37338957,29671,0,1.005859375,-0.025390625,0.013671875,-0.01171875,0.0,0.0,0.0
37340207,29672,0,1.009765625,-0.029296875,0.017578125,-0.01171875,0.0,0.0,0.0
37341459,29673,0,1.00390625,-0.0234375,0.01171875,-0.01171875,0.0,0.0,0.0
37342709,29674,0,1.0078125,-0.0234375,0.017578125,-0.005859375,0.0,0.0,0.0
37343959,29675,0,1.00390625,-0.029296875,0.015625,-0.013671875,0.0,0.0,0.0
37345209,29676,0,1.001953125,-0.0234375,0.015625,-0.0078125,0.0,0.0,0.0
37346459,29677,0,1.00390625,-0.029296875,0.021484375,-0.0078125,0.0,0.0,0.0
37347711,29678,0,1.001953125,-0.02734375,0.013671875,-0.013671875,0.0,0.0,0.0
37348961,29679,0,1.0,-0.02734375,0.01171875,-0.015625,0.0,0.0,0.0
37350213,29680,0,1.005859375,-0.03125,0.013671875,-0.017578125,0.0,0.0,0.0
37351464,29681,0,1.00390625,-0.025390625,0.015625,-0.009765625,0.0,0.0,0.0
37352715,29682,0,1.001953125,-0.03515625,0.013671875,-0.021484375,0.0,0.0,0.0
37353966,29683,0,0.99609375,-0.021484375,0.01171875,-0.009765625,0.0,0.0,0.0
37355216,29684,0,1.001953125,-0.029296875,0.015625,-0.013671875,0.0,0.0,0.0
37356467,29685,0,1.009765625,-0.02734375,0.01171875,-0.015625,0.0,0.0,0.0
37357718,29686,0,1.005859375,-0.02734375,0.017578125,-0.009765625,0.0,0.0,0.0
37358968,29687,0,1.015625,-0.0234375,0.01953125,-0.00390625,0.0,0.0,0.0
37360219,29688,0,1.00390625,-0.029296875,0.013671875,-0.015625,0.0,0.0,0.0
37361470,29689,0,1.001953125,-0.02734375,0.01953125,-0.0078125,0.0,0.0,0.0
37362721,29690,0,1.001953125,-0.02734375,0.01953125,-0.0078125,0.0,0.0,0.0
37363971,29691,0,0.99609375,-0.02734375,0.013671875,-0.013671875,0.0,0.0,0.0
37365223,29692,0,1.005859375,-0.02734375,0.013671875,-0.013671875,0.0,0.0,0.0
37366473,29693,0,1.001953125,-0.029296875,0.015625,-0.013671875,0.0,0.0,0.0
37367723,29694,0,1.005859375,-0.0234375,0.0078125,-0.015625,0.0,0.0,0.0
37368975,29695,0,1.005859375,-0.029296875,0.015625,-0.013671875,0.0,0.0,0.0
37370226,29696,0,1.0078125,-0.03125,0.01953125,-0.01171875,0.0,0.0,0.0
37371476,29697,0,1.0078125,-0.03515625,0.01953125,-0.015625,0.0,0.0,0.0
37372728,29698,0,1.001953125,-0.029296875,0.01171875,-0.017578125,0.0,0.0,0.0
37373979,29699,0,0.998046875,-0.02734375,0.021484375,-0.005859375,0.0,0.0,0.0
37375229,29700,0,1.0,-0.0234375,0.017578125,-0.005859375,0.0,0.0,0.0
37376481,29701,0,1.001953125,-0.0234375,0.017578125,-0.005859375,0.0,0.0,0.0
37377731,29702,0,1.0,-0.025390625,0.021484375,-0.00390625,0.0,0.0,0.0
37378981,29703,0,1.01171875,-0.021484375,0.013671875,-0.0078125,0.0,0.0,0.0
37380232,29704,0,1.0078125,-0.0234375,0.015625,-0.0078125,0.0,0.0,0.0
37381483,29705,0,1.005859375,-0.021484375,0.013671875,-0.0078125,0.0,0.0,0.0
37382734,29706,0,1.01171875,-0.03125,0.0078125,-0.0234375,0.0,0.0,0.0
37383986,29707,0,0.998046875,-0.03125,0.017578125,-0.013671875,0.0,0.0,0.0
37385236,29708,0,1.0,-0.025390625,0.01171875,-0.013671875,0.0,0.0,0.0
37386486,29709,0,1.0078125,-0.02734375,0.01953125,-0.0078125,0.0,0.0,0.0
37387737,29710,0,1.0,-0.03515625,0.015625,-0.01953125,0.0,0.0,0.0
37388987,29711,0,0.998046875,-0.03125,0.01171875,-0.01953125,0.0,0.0,0.0
37390238,29712,0,1.005859375,-0.025390625,0.021484375,-0.00390625,0.0,0.0,0.0
37391489,29713,0,1.005859375,-0.021484375,0.01171875,-0.009765625,0.0,0.0,0.0
37392740,29714,0,0.998046875,-0.0234375,0.017578125,-0.005859375,0.0,0.0,0.0
37393991,29715,0,0.998046875,-0.0234375,0.015625,-0.0078125,0.0,0.0,0.0
37395241,29716,0,1.005859375,-0.021484375,0.013671875,-0.0078125,0.0,0.0,0.0
37396492,29717,0,1.001953125,-0.0234375,0.0234375,0.0,0.0,0.0,0.0
37397744,29718,0,0.998046875,-0.0234375,0.015625,-0.0078125,0.0,0.0,0.0
37398994,29719,0,1.005859375,-0.025390625,0.015625,-0.009765625,0.0,0.0,0.0
37400245,29720,0,1.00390625,-0.02734375,0.01953125,-0.0078125,0.0,0.0,0.0
37401496,29721,0,1.0078125,-0.029296875,0.01953125,-0.009765625,0.0,0.0,0.0
37402747,29722,0,1.001953125,-0.029296875,0.017578125,-0.01171875,0.0,0.0,0.0
37403998,29723,0,1.00390625,-0.02734375,0.009765625,-0.017578125,0.0,0.0,0.0
37405249,29724,0,0.99609375,-0.021484375,0.01171875,-0.009765625,0.0,0.0,0.0
37406499,29725,0,1.009765625,-0.025390625,0.015625,-0.009765625,0.0,0.0,0.0
37407751,29726,0,1.0,-0.02734375,0.013671875,-0.013671875,0.0,0.0,0.0
37409002,29727,0,1.013671875,-0.025390625,0.01171875,-0.013671875,0.0,0.0,0.0
37410253,29728,0,1.01171875,-0.021484375,0.017578125,-0.00390625,0.0,0.0,0.0
37411503,29729,0,1.001953125,-0.025390625,0.025390625,0.0,0.0,0.0,0.0
37412755,29730,0,1.009765625,-0.029296875,0.015625,-0.013671875,0.0,0.0,0.0
37414005,29731,0,1.009765625,-0.02734375,0.013671875,-0.013671875,0.0,0.0,0.0
37415256,29732,0,1.01171875,-0.0234375,0.015625,-0.0078125,0.0,0.0,0.0
37416506,29733,0,1.005859375,-0.025390625,0.005859375,-0.01953125,0.0,0.0,0.0
37417757,29734,0,1.005859375,-0.025390625,0.013671875,-0.01171875,0.0,0.0,0.0
37419008,29735,0,1.00390625,-0.025390625,0.017578125,-0.0078125,0.0,0.0,0.0
37420258,29736,0,1.005859375,-0.025390625,0.017578125,-0.0078125,0.0,0.0,0.0
37421508,29737,0,1.0,-0.02734375,0.017578125,-0.009765625,0.0,0.0,0.0
37422759,29738,0,1.0,-0.025390625,0.015625,-0.009765625,0.0,0.0,0.0
37424009,29739,0,0.998046875,-0.029296875,0.017578125,-0.01171875,0.0,0.0,0.0
37425259,29740,0,1.00390625,-0.02734375,0.01953125,-0.0078125,0.0,0.0,0.0
37426510,29741,0,1.00390625,-0.0234375,0.015625,-0.0078125,0.0,0.0,0.0
37427762,29742,0,1.00390625,-0.025390625,0.01171875,-0.013671875,0.0,0.0,0.0
37429012,29743,0,1.009765625,-0.021484375,0.009765625,-0.01171875,0.0,0.0,0.0
37430271,29744,0,1.001953125,-0.021484375,0.013671875,-0.0078125,0.0,0.0,0.0
37431521,29745,0,1.0078125,-0.021484375,0.017578125,-0.00390625,0.0,0.0,0.0
37432773,29746,0,1.00390625,-0.02734375,0.01953125,-0.0078125,0.0,0.0,0.0
37434023,29747,0,1.005859375,-0.02734375,0.015625,-0.01171875,0.0,0.0,0.0
37435274,29748,0,1.009765625,-0.0234375,0.017578125,-0.005859375,0.0,0.0,0.0
37436525,29749,0,1.017578125,-0.0234375,0.01171875,-0.01171875,0.0,0.0,0.0
37437776,29750,0,1.0078125,-0.025390625,0.0078125,-0.017578125,0.0,0.0,0.0
37439026,29751,0,1.009765625,-0.021484375,0.015625,-0.005859375,0.0,0.0,0.0
37440276,29752,0,1.0078125,-0.01953125,0.015625,-0.00390625,0.0,0.0,0.0
37441527,29753,0,1.00390625,-0.02734375,0.01171875,-0.015625,0.0,0.0,0.0
37442778,29754,0,1.005859375,-0.02734375,0.013671875,-0.013671875,0.0,0.0,0.0
37444029,29755,0,1.0,-0.025390625,0.01171875,-0.013671875,0.0,0.0,0.0
37445280,29756,0,1.0078125,-0.025390625,0.013671875,-0.01171875,0.0,0.0,0.0
37446531,29757,0,1.005859375,-0.0234375,0.017578125,-0.005859375,0.0,0.0,0.0
37447783,29758,0,1.001953125,-0.025390625,0.013671875,-0.01171875,0.0,0.0,0.0
37449034,29759,0,1.0078125,-0.0234375,0.015625,-0.0078125,0.0,0.0,0.0
37450286,29760,0,1.001953125,-0.025390625,0.017578125,-0.0078125,0.0,0.0,0.0
37451537,29761,0,1.005859375,-0.0234375,0.013671875,-0.009765625,0.0,0.0,0.0
37452789,29762,0,1.0,-0.0234375,0.017578125,-0.005859375,0.0,0.0,0.0
37454039,29763,0,1.00390625,-0.029296875,0.017578125,-0.01171875,0.0,0.0,0.0
37455289,29764,0,1.00390625,-0.0234375,0.015625,-0.0078125,0.0,0.0,0.0
37456541,29765,0,1.00390625,-0.021484375,0.021484375,0.0,0.0,0.0,0.0
37457792,29766,0,1.0,-0.025390625,0.017578125,-0.0078125,0.0,0.0,0.0
37459044,29767,0,1.0078125,-0.03125,0.015625,-0.015625,0.0,0.0,0.0
37460294,29768,0,1.00390625,-0.0234375,0.017578125,-0.005859375,0.0,0.0,0.0
37461544,29769,0,1.01171875,-0.025390625,0.013671875,-0.01171875,0.0,0.0,0.0
37462795,29770,0,1.001953125,-0.025390625,0.013671875,-0.01171875,0.0,0.0,0.0
37464045,29771,0,1.001953125,-0.029296875,0.013671875,-0.015625,0.0,0.0,0.0
37465295,29772,0,0.998046875,-0.029296875,0.015625,-0.013671875,0.0,0.0,0.0
37466546,29773,0,1.009765625,-0.02734375,0.01171875,-0.015625,0.0,0.0,0.0
37467797,29774,0,1.015625,-0.033203125,0.01953125,-0.013671875,0.0,0.0,0.0
37469048,29775,0,0.998046875,-0.025390625,0.013671875,-0.01171875,0.0,0.0,0.0
37470299,29776,0,1.0,-0.03125,0.015625,-0.015625,0.0,0.0,0.0
37471550,29777,0,1.005859375,-0.02734375,0.01171875,-0.015625,0.0,0.0,0.0
37472800,29778,0,1.009765625,-0.025390625,0.013671875,-0.01171875,0.0,0.0,0.0
37474052,29779,0,1.005859375,-0.029296875,0.013671875,-0.015625,0.0,0.0,0.0
37475303,29780,0,1.001953125,-0.02734375,0.017578125,-0.009765625,0.0,0.0,0.0
37476554,29781,0,1.0078125,-0.02734375,0.01171875,-0.015625,0.0,0.0,0.0
37477805,29782,0,1.001953125,-0.025390625,0.017578125,-0.0078125,0.0,0.0,0.0
37479057,29783,0,1.009765625,-0.03125,0.009765625,-0.021484375,0.0,0.0,0.0
37480308,29784,0,1.0,-0.02734375,0.017578125,-0.009765625,0.0,0.0,0.0
37481560,29785,0,1.005859375,-0.02734375,0.015625,-0.01171875,0.0,0.0,0.0
37482811,29786,0,1.001953125,-0.0234375,0.017578125,-0.005859375,0.0,0.0,0.0
37484063,29787,0,1.0,-0.025390625,0.01171875,-0.013671875,0.0,0.0,0.0
37485314,29788,0,0.998046875,-0.021484375,0.013671875,-0.0078125,0.0,0.0,0.0
37486565,29789,0,1.001953125,-0.0234375,0.01171875,-0.01171875,0.0,0.0,0.0
37487816,29790,0,1.009765625,-0.0234375,0.017578125,-0.005859375,0.0,0.0,0.0
37489066,29791,0,0.998046875,-0.02734375,0.01171875,-0.015625,0.0,0.0,0.0
37490318,29792,0,1.005859375,-0.01953125,0.01171875,-0.0078125,0.0,0.0,0.0
37491569,29793,0,1.0078125,-0.025390625,0.0234375,-0.001953125,0.0,0.0,0.0
37492819,29794,0,1.00390625,-0.0234375,0.013671875,-0.009765625,0.0,0.0,0.0
37494070,29795,0,1.0,-0.0234375,0.015625,-0.0078125,0.0,0.0,0.0
37495321,29796,0,1.0,-0.02734375,0.017578125,-0.009765625,0.0,0.0,0.0
37496572,29797,0,1.00390625,-0.025390625,0.017578125,-0.0078125,0.0,0.0,0.0
37497823,29798,0,1.0,-0.025390625,0.01953125,-0.005859375,0.0,0.0,0.0
37499074,29799,0,1.00390625,-0.0234375,0.015625,-0.0078125,0.0,0.0,0.0
37500325,29800,0,1.00390625,-0.025390625,0.01953125,-0.005859375,0.0,0.0,0.0
37501575,29801,0,1.00390625,-0.03125,0.021484375,-0.009765625,0.0,0.0,0.0
37502825,29802,0,1.0078125,-0.025390625,0.015625,-0.009765625,0.0,0.0,0.0
37504076,29803,0,1.005859375,-0.025390625,0.017578125,-0.0078125,0.0,0.0,0.0
37505326,29804,0,1.0,-0.029296875,0.009765625,-0.01953125,0.0,0.0,0.0
37506577,29805,0,1.00390625,-0.02734375,0.017578125,-0.009765625,0.0,0.0,0.0
37507828,29806,0,1.001953125,-0.025390625,0.009765625,-0.015625,0.0,0.0,0.0
37509078,29807,0,1.001953125,-0.021484375,0.01171875,-0.009765625,0.0,0.0,0.0
37510329,29808,0,1.001953125,-0.0234375,0.015625,-0.0078125,0.0,0.0,0.0
37511581,29809,0,1.00390625,-0.02734375,0.017578125,-0.009765625,0.0,0.0,0.0
37512833,29810,0,0.99609375,-0.029296875,0.013671875,-0.015625,0.0,0.0,0.0
37514083,29811,0,1.001953125,-0.02734375,0.017578125,-0.009765625,0.0,0.0,0.0
37515333,29812,0,1.001953125,-0.025390625,0.017578125,-0.0078125,0.0,0.0,0.0
37516584,29813,0,1.009765625,-0.025390625,0.01953125,-0.005859375,0.0,0.0,0.0
37517835,29814,0,1.001953125,-0.0234375,0.015625,-0.0078125,0.0,0.0,0.0
37519085,29815,0,0.998046875,-0.02734375,0.01171875,-0.015625,0.0,0.0,0.0
37520336,29816,0,1.0078125,-0.03125,0.013671875,-0.017578125,0.0,0.0,0.0
37521587,29817,0,1.00390625,-0.017578125,0.00390625,-0.013671875,0.0,0.0,0.0
37522838,29818,0,1.0078125,-0.0234375,0.017578125,-0.005859375,0.0,0.0,0.0
37524090,29819,0,1.005859375,-0.0234375,0.01953125,-0.00390625,0.0,0.0,0.0
37525341,29820,0,1.00390625,-0.025390625,0.009765625,-0.015625,0.0,0.0,0.0
37526592,29821,0,1.005859375,-0.025390625,0.01953125,-0.005859375,0.0,0.0,0.0
37527844,29822,0,0.998046875,-0.029296875,0.01171875,-0.017578125,0.0,0.0,0.0
37529095,29823,0,1.0,-0.0234375,0.01953125,-0.00390625,0.0,0.0,0.0
37530346,29824,0,1.005859375,-0.025390625,0.01953125,-0.005859375,0.0,0.0,0.0
37531597,29825,0,1.0078125,-0.029296875,0.017578125,-0.01171875,0.0,0.0,0.0
37532849,29826,0,1.0078125,-0.02734375,0.01171875,-0.015625,0.0,0.0,0.0
37534099,29827,0,1.001953125,-0.029296875,0.01953125,-0.009765625,0.0,0.0,0.0
37535351,29828,0,1.0,-0.025390625,0.01171875,-0.013671875,0.0,0.0,0.0
37536602,29829,0,1.001953125,-0.029296875,0.013671875,-0.015625,0.0,0.0,0.0
37537854,29830,0,1.0078125,-0.0234375,0.0234375,0.0,0.0,0.0,0.0
37539104,29831,0,1.0078125,-0.021484375,0.015625,-0.005859375,0.0,0.0,0.0
37540354,29832,0,1.005859375,-0.033203125,0.015625,-0.017578125,0.0,0.0,0.0
37541605,29833,0,1.005859375,-0.02734375,0.009765625,-0.017578125,0.0,0.0,0.0
37542855,29834,0,1.013671875,-0.025390625,0.015625,-0.009765625,0.0,0.0,0.0
37544107,29835,0,1.005859375,-0.0234375,0.01171875,-0.01171875,0.0,0.0,0.0
37545358,29836,0,1.01171875,-0.029296875,0.017578125,-0.01171875,0.0,0.0,0.0
37546609,29837,0,1.005859375,-0.021484375,0.015625,-0.005859375,0.0,0.0,0.0
37547859,29838,0,1.0078125,-0.03125,0.009765625,-0.021484375,0.0,0.0,0.0
37549111,29839,0,1.0,-0.02734375,0.01953125,-0.0078125,0.0,0.0,0.0
37550362,29840,0,1.0,-0.02734375,0.017578125,-0.009765625,0.0,0.0,0.0
37551613,29841,0,1.0,-0.025390625,0.01171875,-0.013671875,0.0,0.0,0.0
37552865,29842,0,1.005859375,-0.0234375,0.017578125,-0.005859375,0.0,0.0,0.0
37554115,29843,0,1.00390625,-0.02734375,0.015625,-0.01171875,0.0,0.0,0.0
37555365,29844,0,1.0,-0.029296875,0.01953125,-0.009765625,0.0,0.0,0.0
37556617,29845,0,1.001953125,-0.0234375,0.01953125,-0.00390625,0.0,0.0,0.0
37557867,29846,0,1.0078125,-0.025390625,0.017578125,-0.0078125,0.0,0.0,0.0
37559118,29847,0,1.00390625,-0.0234375,0.009765625,-0.013671875,0.0,0.0,0.0
37560369,29848,0,1.005859375,-0.02734375,0.017578125,-0.009765625,0.0,0.0,0.0
37561620,29849,0,1.013671875,-0.025390625,0.015625,-0.009765625,0.0,0.0,0.0
37562871,29850,0,1.005859375,-0.021484375,0.009765625,-0.01171875,0.0,0.0,0.0
37564123,29851,0,1.001953125,-0.029296875,0.01171875,-0.017578125,0.0,0.0,0.0
37565374,29852,0,1.00390625,-0.025390625,0.017578125,-0.0078125,0.0,0.0,0.0
37566624,29853,0,1.005859375,-0.029296875,0.013671875,-0.015625,0.0,0.0,0.0
37567875,29854,0,1.01171875,-0.017578125,0.017578125,0.0,0.0,0.0,0.0
37569125,29855,0,1.01171875,-0.02734375,0.0078125,-0.01953125,0.0,0.0,0.0
37570375,29856,0,1.009765625,-0.025390625,0.015625,-0.009765625,0.0,0.0,0.0
37571626,29857,0,1.00390625,-0.029296875,0.015625,-0.013671875,0.0,0.0,0.0
37572877,29858,0,0.99609375,-0.02734375,0.01171875,-0.015625,0.0,0.0,0.0
37574129,29859,0,1.001953125,-0.025390625,0.015625,-0.009765625,0.0,0.0,0.0
37575380,29860,0,1.005859375,-0.0234375,0.021484375,-0.001953125,0.0,0.0,0.0
37576630,29861,0,1.00390625,-0.025390625,0.015625,-0.009765625,0.0,0.0,0.0
37577881,29862,0,1.001953125,-0.0234375,0.013671875,-0.009765625,0.0,0.0,0.0
37579133,29863,0,1.001953125,-0.03125,0.013671875,-0.017578125,0.0,0.0,0.0
37580384,29864,0,1.005859375,-0.02734375,0.015625,-0.01171875,0.0,0.0,0.0
37581634,29865,0,1.005859375,-0.021484375,0.017578125,-0.00390625,0.0,0.0,0.0
37582886,29866,0,1.009765625,-0.0234375,0.015625,-0.0078125,0.0,0.0,0.0
37584136,29867,0,1.0078125,-0.025390625,0.01171875,-0.013671875,0.0,0.0,0.0
37585386,29868,0,1.0,-0.029296875,0.00390625,-0.025390625,0.0,0.0,0.0
37586638,29869,0,1.0078125,-0.021484375,0.01953125,-0.001953125,0.0,0.0,0.0
37587888,29870,0,0.99609375,-0.02734375,0.005859375,-0.021484375,0.0,0.0,0.0
37589139,29871,0,1.005859375,-0.029296875,0.015625,-0.013671875,0.0,0.0,0.0
37590391,29872,0,1.005859375,-0.025390625,0.017578125,-0.0078125,0.0,0.0,0.0
37591641,29873,0,1.001953125,-0.02734375,0.015625,-0.01171875,0.0,0.0,0.0
37592892,29874,0,1.0,-0.02734375,0.021484375,-0.005859375,0.0,0.0,0.0
37594142,29875,0,1.001953125,-0.029296875,0.015625,-0.013671875,0.0,0.0,0.0
37595393,29876,0,1.00390625,-0.03125,0.017578125,-0.013671875,0.0,0.0,0.0
37596645,29877,0,1.005859375,-0.02734375,0.017578125,-0.009765625,0.0,0.0,0.0
37597895,29878,0,1.0078125,-0.0234375,0.01953125,-0.00390625,0.0,0.0,0.0
37599147,29879,0,1.00390625,-0.029296875,0.015625,-0.013671875,0.0,0.0,0.0
37600397,29880,0,1.009765625,-0.025390625,0.01953125,-0.005859375,0.0,0.0,0.0
37601649,29881,0,0.998046875,-0.029296875,0.01953125,-0.009765625,0.0,0.0,0.0
37602899,29882,0,1.005859375,-0.02734375,0.021484375,-0.005859375,0.0,0.0,0.0
37604149,29883,0,1.009765625,-0.02734375,0.013671875,-0.013671875,0.0,0.0,0.0
37605399,29884,0,1.001953125,-0.02734375,0.01171875,-0.015625,0.0,0.0,0.0
37606650,29885,0,1.001953125,-0.02734375,0.015625,-0.01171875,0.0,0.0,0.0
37607902,29886,0,0.99609375,-0.02734375,0.017578125,-0.009765625,0.0,0.0,0.0
37609153,29887,0,1.0078125,-0.0234375,0.015625,-0.0078125,0.0,0.0,0.0
37610404,29888,0,1.005859375,-0.025390625,0.01171875,-0.013671875,0.0,0.0,0.0
37611654,29889,0,1.00390625,-0.02734375,0.01953125,-0.0078125,0.0,0.0,0.0
37612904,29890,0,1.001953125,-0.029296875,0.01171875,-0.017578125,0.0,0.0,0.0
37614155,29891,0,1.00390625,-0.025390625,0.021484375,-0.00390625,0.0,0.0,0.0
37615407,29892,0,1.005859375,-0.029296875,0.01171875,-0.017578125,0.0,0.0,0.0
37616657,29893,0,0.998046875,-0.025390625,0.013671875,-0.01171875,0.0,0.0,0.0
37617909,29894,0,1.009765625,-0.021484375,0.009765625,-0.01171875,0.0,0.0,0.0
37619159,29895,0,0.998046875,-0.029296875,0.017578125,-0.01171875,0.0,0.0,0.0
37620409,29896,0,1.005859375,-0.0234375,0.013671875,-0.009765625,0.0,0.0,0.0
37621661,29897,0,1.009765625,-0.03125,0.0078125,-0.0234375,0.0,0.0,0.0
37622911,29898,0,1.0,-0.029296875,0.01953125,-0.009765625,0.0,0.0,0.0
37624161,29899,0,1.001953125,-0.02734375,0.01171875,-0.015625,0.0,0.0,0.0
37625411,29900,0,1.00390625,-0.02734375,0.01171875,-0.015625,0.0,0.0,0.0
37626663,29901,0,0.99609375,-0.0234375,0.017578125,-0.005859375,0.0,0.0,0.0
37627913,29902,0,1.0078125,-0.0234375,0.0078125,-0.015625,0.0,0.0,0.0
37629164,29903,0,1.0,-0.029296875,0.013671875,-0.015625,0.0,0.0,0.0
37630415,29904,0,1.001953125,-0.025390625,0.015625,-0.009765625,0.0,0.0,0.0
37631666,29905,0,1.009765625,-0.021484375,0.015625,-0.005859375,0.0,0.0,0.0
37632916,29906,0,1.0078125,-0.025390625,0.01171875,-0.013671875,0.0,0.0,0.0
37634167,29907,0,1.009765625,-0.025390625,0.01171875,-0.013671875,0.0,0.0,0.0
37635417,29908,0,1.005859375,-0.02734375,0.015625,-0.01171875,0.0,0.0,0.0
37636668,29909,0,1.001953125,-0.0234375,0.013671875,-0.009765625,0.0,0.0,0.0
37637920,29910,0,1.005859375,-0.025390625,0.015625,-0.009765625,0.0,0.0,0.0
37639171,29911,0,1.00390625,-0.02734375,0.015625,-0.01171875,0.0,0.0,0.0
37640421,29912,0,1.009765625,-0.025390625,0.017578125,-0.0078125,0.0,0.0,0.0
37641672,29913,0,1.00390625,-0.025390625,0.015625,-0.009765625,0.0,0.0,0.0
37642924,29914,0,1.00390625,-0.025390625,0.013671875,-0.01171875,0.0,0.0,0.0
37644174,29915,0,1.0,-0.021484375,0.017578125,-0.00390625,0.0,0.0,0.0
37645425,29916,0,1.001953125,-0.03125,0.009765625,-0.021484375,0.0,0.0,0.0
37646677,29917,0,1.00390625,-0.0234375,0.01953125,-0.00390625,0.0,0.0,0.0
37647927,29918,0,1.005859375,-0.0234375,0.015625,-0.0078125,0.0,0.0,0.0
37649177,29919,0,1.0078125,-0.02734375,0.017578125,-0.009765625,0.0,0.0,0.0
37650429,29920,0,1.001953125,-0.025390625,0.021484375,-0.00390625,0.0,0.0,0.0
37651679,29921,0,1.005859375,-0.025390625,0.021484375,-0.00390625,0.0,0.0,0.0
37652931,29922,0,0.994140625,-0.025390625,0.0078125,-0.017578125,0.0,0.0,0.0
37654181,29923,0,1.01171875,-0.029296875,0.015625,-0.013671875,0.0,0.0,0.0
37655431,29924,0,1.0078125,-0.025390625,0.009765625,-0.015625,0.0,0.0,0.0
37656683,29925,0,1.00390625,-0.025390625,0.009765625,-0.015625,0.0,0.0,0.0
37657933,29926,0,1.013671875,-0.03125,0.015625,-0.015625,0.0,0.0,0.0
37659183,29927,0,1.0078125,-0.02734375,0.015625,-0.01171875,0.0,0.0,0.0
37660434,29928,0,0.998046875,-0.0234375,0.015625,-0.0078125,0.0,0.0,0.0
37661685,29929,0,1.0078125,-0.029296875,0.009765625,-0.01953125,0.0,0.0,0.0
37662936,29930,0,1.001953125,-0.0234375,0.01953125,-0.00390625,0.0,0.0,0.0
37664186,29931,0,1.001953125,-0.029296875,0.015625,-0.013671875,0.0,0.0,0.0
37665437,29932,0,1.005859375,-0.025390625,0.015625,-0.009765625,0.0,0.0,0.0
37666687,29933,0,1.001953125,-0.0234375,0.01171875,-0.01171875,0.0,0.0,0.0
37667937,29934,0,1.005859375,-0.03125,0.01171875,-0.01953125,0.0,0.0,0.0
37669188,29935,0,1.0078125,-0.025390625,0.0078125,-0.017578125,0.0,0.0,0.0
37670440,29936,0,1.0078125,-0.02734375,0.009765625,-0.017578125,0.0,0.0,0.0
37671690,29937,0,1.00390625,-0.025390625,0.017578125,-0.0078125,0.0,0.0,0.0
37672942,29938,0,1.0,-0.025390625,0.013671875,-0.01171875,0.0,0.0,0.0
37674193,29939,0,1.001953125,-0.02734375,0.015625,-0.01171875,0.0,0.0,0.0
37675445,29940,0,1.00390625,-0.029296875,0.009765625,-0.01953125,0.0,0.0,0.0
37676695,29941,0,0.998046875,-0.02734375,0.01953125,-0.0078125,0.0,0.0,0.0
37677947,29942,0,1.005859375,-0.0234375,0.017578125,-0.005859375,0.0,0.0,0.0
37679198,29943,0,1.009765625,-0.0234375,0.009765625,-0.013671875,0.0,0.0,0.0
37680450,29944,0,1.00390625,-0.01953125,0.01171875,-0.0078125,0.0,0.0,0.0
37681700,29945,0,1.005859375,-0.00390625,0.02734375,0.0234375,0.0,0.0,0.0
37682952,29946,0,1.00390625,0.009765625,0.033203125,0.04296875,0.0,0.0,0.0
37684203,29947,0,1.00390625,0.00390625,0.029296875,0.033203125,0.0,0.0,0.0
37685454,29948,0,1.005859375,-0.01171875,0.0234375,0.01171875,0.0,0.0,0.0
37686705,29949,0,1.0,-0.0234375,0.021484375,-0.001953125,0.0,0.0,0.0
37687957,29950,0,1.00390625,-0.03515625,0.01171875,-0.0234375,0.0,0.0,0.0
37689207,29951,0,1.00390625,-0.04296875,0.015625,-0.02734375,0.0,0.0,0.0
37690459,29952,0,1.005859375,-0.046875,0.00390625,-0.04296875,0.0,0.0,0.0
37691709,29953,0,1.0078125,-0.0390625,0.0078125,-0.03125,0.0,0.0,0.0
37692959,29954,0,0.99609375,-0.03515625,0.013671875,-0.021484375,0.0,0.0,0.0
37694209,29955,0,1.0,-0.033203125,0.013671875,-0.01953125,0.0,0.0,0.0
37695459,29956,0,1.005859375,-0.029296875,0.017578125,-0.01171875,0.0,0.0,0.0
37696711,29957,0,1.005859375,-0.029296875,0.017578125,-0.01171875,0.0,0.0,0.0
37697961,29958,0,1.00390625,-0.029296875,0.015625,-0.013671875,0.0,0.0,0.0
37699213,29959,0,1.005859375,-0.025390625,0.01171875,-0.013671875,0.0,0.0,0.0
37700464,29960,0,1.009765625,-0.01953125,0.015625,-0.00390625,0.0,0.0,0.0
37701715,29961,0,1.00390625,-0.01953125,0.021484375,0.001953125,0.0,0.0,0.0
37702966,29962,0,1.0,-0.021484375,0.0234375,0.001953125,0.0,0.0,0.0
37704216,29963,0,1.013671875,-0.025390625,0.01171875,-0.013671875,0.0,0.0,0.0
37705467,29964,0,1.0078125,-0.021484375,0.015625,-0.005859375,0.0,0.0,0.0
37706718,29965,0,0.99609375,-0.021484375,0.017578125,-0.00390625,0.0,0.0,0.0
37707968,29966,0,1.009765625,-0.0234375,0.013671875,-0.009765625,0.0,0.0,0.0
37709219,29967,0,1.005859375,-0.025390625,0.01171875,-0.013671875,0.0,0.0,0.0
37710470,29968,0,1.013671875,-0.025390625,0.0078125,-0.017578125,0.0,0.0,0.0
37711721,29969,0,1.005859375,-0.029296875,0.013671875,-0.015625,0.0,0.0,0.0
37712971,29970,0,1.005859375,-0.021484375,0.01953125,-0.001953125,0.0,0.0,0.0
37714223,29971,0,1.009765625,-0.025390625,0.015625,-0.009765625,0.0,0.0,0.0
37715473,29972,0,1.0078125,-0.025390625,0.017578125,-0.0078125,0.0,0.0,0.0
37716723,29973,0,1.0078125,-0.029296875,0.015625,-0.013671875,0.0,0.0,0.0
37717975,29974,0,0.998046875,-0.02734375,0.01953125,-0.0078125,0.0,0.0,0.0
37719226,29975,0,1.001953125,-0.03125,0.017578125,-0.013671875,0.0,0.0,0.0
37720476,29976,0,0.998046875,-0.029296875,0.009765625,-0.01953125,0.0,0.0,0.0
37721728,29977,0,1.0,-0.03125,0.009765625,-0.021484375,0.0,0.0,0.0
37722979,29978,0,1.0,-0.03515625,0.009765625,-0.025390625,0.0,0.0,0.0
37724229,29979,0,1.00390625,-0.03515625,0.005859375,-0.029296875,0.0,0.0,0.0
37725481,29980,0,0.998046875,-0.0390625,0.0078125,-0.03125,0.0,0.0,0.0
37726731,29981,0,1.005859375,-0.0390625,0.01171875,-0.02734375,0.0,0.0,0.0
37727981,29982,0,1.001953125,-0.0390625,0.0078125,-0.03125,0.0,0.0,0.0
37729232,29983,0,1.009765625,-0.033203125,0.01171875,-0.021484375,0.0,0.0,0.0
37730483,29984,0,1.005859375,-0.037109375,0.0078125,-0.029296875,0.0,0.0,0.0
37731734,29985,0,1.00390625,-0.03125,0.005859375,-0.025390625,0.0,0.0,0.0
37732986,29986,0,0.998046875,-0.03125,0.01171875,-0.01953125,0.0,0.0,0.0
37734236,29987,0,0.994140625,-0.03515625,0.017578125,-0.017578125,0.0,0.0,0.0
37735486,29988,0,1.001953125,-0.03515625,0.021484375,-0.013671875,0.0,0.0,0.0
37736737,29989,0,1.017578125,-0.037109375,0.015625,-0.021484375,0.0,0.0,0.0
37737987,29990,0,0.994140625,-0.029296875,0.0078125,-0.021484375,0.0,0.0,0.0
37739238,29991,0,1.001953125,-0.029296875,0.009765625,-0.01953125,0.0,0.0,0.0
37740489,29992,0,1.005859375,-0.029296875,0.013671875,-0.015625,0.0,0.0,0.0
37741740,29993,0,1.00390625,-0.03125,0.017578125,-0.013671875,0.0,0.0,0.0
37742991,29994,0,1.009765625,-0.025390625,0.013671875,-0.01171875,0.0,0.0,0.0
37744241,29995,0,1.005859375,-0.025390625,0.017578125,-0.0078125,0.0,0.0,0.0
37745492,29996,0,1.0078125,-0.021484375,0.017578125,-0.00390625,0.0,0.0,0.0
37746744,29997,0,1.0078125,-0.021484375,0.017578125,-0.00390625,0.0,0.0,0.0
37747994,29998,0,1.005859375,-0.01953125,0.01953125,0.0,0.0,0.0,0.0
37749245,29999,0,1.001953125,-0.015625,0.01953125,0.00390625,0.0,0.0,0.0
37750496,30000,0,1.0,-0.021484375,0.01953125,-0.001953125,0.0,0.0,0.0
37751747,30001,0,1.001953125,-0.01953125,0.01953125,0.0,0.0,0.0,0.0
37752998,30002,0,1.00390625,-0.021484375,0.01953125,-0.001953125,0.0,0.0,0.0
37754249,30003,0,1.00390625,-0.0234375,0.015625,-0.0078125,0.0,0.0,0.0
37755499,30004,0,1.0078125,-0.025390625,0.017578125,-0.0078125,0.0,0.0,0.0
37756751,30005,0,1.001953125,-0.021484375,0.017578125,-0.00390625,0.0,0.0,0.0
37758002,30006,0,1.005859375,-0.021484375,0.01953125,-0.001953125,0.0,0.0,0.0
37759253,30007,0,1.0078125,-0.01953125,0.021484375,0.001953125,0.0,0.0,0.0
37760503,30008,0,1.001953125,-0.02734375,0.017578125,-0.009765625,0.0,0.0,0.0
37761755,30009,0,1.0078125,-0.02734375,0.005859375,-0.021484375,0.0,0.0,0.0
37763005,30010,0,0.998046875,-0.02734375,0.015625,-0.01171875,0.0,0.0,0.0
37764256,30011,0,1.0,-0.029296875,0.015625,-0.013671875,0.0,0.0,0.0
37765506,30012,0,1.0,-0.029296875,0.021484375,-0.0078125,0.0,0.0,0.0
37766757,30013,0,1.0078125,-0.0234375,0.015625,-0.0078125,0.0,0.0,0.0
37768008,30014,0,1.009765625,-0.029296875,0.017578125,-0.01171875,0.0,0.0,0.0
37769258,30015,0,1.009765625,-0.02734375,0.017578125,-0.009765625,0.0,0.0,0.0
37770508,30016,0,1.005859375,-0.02734375,0.015625,-0.01171875,0.0,0.0,0.0
37771759,30017,0,1.001953125,-0.029296875,0.01171875,-0.017578125,0.0,0.0,0.0
37773009,30018,0,1.001953125,-0.0234375,0.0234375,0.0,0.0,0.0,0.0
37774259,30019,0,1.005859375,-0.021484375,0.01171875,-0.009765625,0.0,0.0,0.0
37775510,30020,0,1.005859375,-0.0234375,0.01953125,-0.00390625,0.0,0.0,0.0
37776762,30021,0,1.001953125,-0.0234375,0.013671875,-0.009765625,0.0,0.0,0.0
37778012,30022,0,1.0078125,-0.025390625,0.017578125,-0.0078125,0.0,0.0,0.0
37779271,30023,0,1.001953125,-0.0234375,0.01171875,-0.01171875,0.0,0.0,0.0
37780521,30024,0,1.0,-0.02734375,0.015625,-0.01171875,0.0,0.0,0.0
37781773,30025,0,1.00390625,-0.025390625,0.0234375,-0.001953125,0.0,0.0,0.0
37783023,30026,0,1.005859375,-0.029296875,0.015625,-0.013671875,0.0,0.0,0.0
37784274,30027,0,1.0,-0.029296875,0.013671875,-0.015625,0.0,0.0,0.0
37785525,30028,0,1.009765625,-0.03125,0.009765625,-0.021484375,0.0,0.0,0.0
37786776,30029,0,1.0,-0.025390625,0.009765625,-0.015625,0.0,0.0,0.0
37788026,30030,0,1.00390625,-0.021484375,0.009765625,-0.01171875,0.0,0.0,0.0
37789276,30031,0,1.0078125,-0.02734375,0.01171875,-0.015625,0.0,0.0,0.0
37790527,30032,0,1.005859375,-0.02734375,0.009765625,-0.017578125,0.0,0.0,0.0
37791778,30033,0,1.005859375,-0.01953125,0.01171875,-0.0078125,0.0,0.0,0.0
37793029,30034,0,1.005859375,-0.0234375,0.015625,-0.0078125,0.0,0.0,0.0
37794280,30035,0,1.00390625,-0.025390625,0.015625,-0.009765625,0.0,0.0,0.0
37795531,30036,0,1.00390625,-0.025390625,0.013671875,-0.01171875,0.0,0.0,0.0
37796783,30037,0,1.0078125,-0.025390625,0.015625,-0.009765625,0.0,0.0,0.0
37798034,30038,0,1.009765625,-0.025390625,0.01953125,-0.005859375,0.0,0.0,0.0
37799286,30039,0,1.001953125,-0.025390625,0.01953125,-0.005859375,0.0,0.0,0.0
37800537,30040,0,1.001953125,-0.02734375,0.017578125,-0.009765625,0.0,0.0,0.0
37801789,30041,0,1.001953125,-0.02734375,0.01953125,-0.0078125,0.0,0.0,0.0
37803039,30042,0,1.001953125,-0.02734375,0.01953125,-0.0078125,0.0,0.0,0.0
37804289,30043,0,1.00390625,-0.025390625,0.015625,-0.009765625,0.0,0.0,0.0
37805541,30044,0,1.00390625,-0.025390625,0.015625,-0.009765625,0.0,0.0,0.0
37806792,30045,0,1.009765625,-0.0234375,0.01171875,-0.01171875,0.0,0.0,0.0
37808044,30046,0,1.0078125,-0.0234375,0.009765625,-0.013671875,0.0,0.0,0.0
37809294,30047,0,1.0078125,-0.029296875,0.009765625,-0.01953125,0.0,0.0,0.0
37810544,30048,0,1.009765625,-0.025390625,0.01171875,-0.013671875,0.0,0.0,0.0
37811795,30049,0,1.005859375,-0.025390625,0.005859375,-0.01953125,0.0,0.0,0.0
37813045,30050,0,0.994140625,-0.0234375,0.017578125,-0.005859375,0.0,0.0,0.0
37814295,30051,0,1.0,-0.029296875,0.01171875,-0.017578125,0.0,0.0,0.0
37815546,30052,0,1.01171875,-0.025390625,0.013671875,-0.01171875,0.0,0.0,0.0
37816797,30053,0,1.017578125,-0.01953125,0.01953125,0.0,0.0,0.0,0.0
37818048,30054,0,0.998046875,-0.0234375,0.005859375,-0.017578125,0.0,0.0,0.0
37819299,30055,0,1.0,-0.0234375,0.017578125,-0.005859375,0.0,0.0,0.0
37820550,30056,0,1.00390625,-0.021484375,0.015625,-0.005859375,0.0,0.0,0.0
37821800,30057,0,1.001953125,-0.01953125,0.017578125,-0.001953125,0.0,0.0,0.0
37823052,30058,0,1.005859375,-0.021484375,0.017578125,-0.00390625,0.0,0.0,0.0
37824303,30059,0,1.001953125,-0.0234375,0.017578125,-0.005859375,0.0,0.0,0.0
37825554,30060,0,1.0078125,-0.025390625,0.015625,-0.009765625,0.0,0.0,0.0
37826805,30061,0,1.00390625,-0.0234375,0.017578125,-0.005859375,0.0,0.0,0.0
37828057,30062,0,0.998046875,-0.025390625,0.017578125,-0.0078125,0.0,0.0,0.0
37829308,30063,0,1.00390625,-0.0234375,0.017578125,-0.005859375,0.0,0.0,0.0
37830560,30064,0,1.0,-0.021484375,0.013671875,-0.0078125,0.0,0.0,0.0
37831811,30065,0,1.0,-0.025390625,0.013671875,-0.01171875,0.0,0.0,0.0
37833063,30066,0,1.005859375,-0.033203125,0.013671875,-0.01953125,0.0,0.0,0.0
37834314,30067,0,1.001953125,-0.029296875,0.017578125,-0.01171875,0.0,0.0,0.0
37835565,30068,0,1.00390625,-0.02734375,0.017578125,-0.009765625,0.0,0.0,0.0
37836816,30069,0,1.001953125,-0.025390625,0.01953125,-0.005859375,0.0,0.0,0.0
37838066,30070,0,1.0078125,-0.021484375,0.013671875,-0.0078125,0.0,0.0,0.0
37839318,30071,0,1.005859375,-0.015625,0.017578125,0.001953125,0.0,0.0,0.0
37840569,30072,0,1.0,-0.029296875,0.01953125,-0.009765625,0.0,0.0,0.0
37841819,30073,0,1.001953125,-0.02734375,0.01953125,-0.0078125,0.0,0.0,0.0
37843070,30074,0,1.0,-0.021484375,0.017578125,-0.00390625,0.0,0.0,0.0
37844321,30075,0,1.0078125,-0.025390625,0.009765625,-0.015625,0.0,0.0,0.0
37845572,30076,0,1.0,-0.025390625,0.01171875,-0.013671875,0.0,0.0,0.0
37846823,30077,0,1.001953125,-0.025390625,0.021484375,-0.00390625,0.0,0.0,0.0
37848074,30078,0,1.001953125,-0.029296875,0.013671875,-0.015625,0.0,0.0,0.0
37849325,30079,0,0.998046875,-0.0234375,0.017578125,-0.005859375,0.0,0.0,0.0
37850575,30080,0,1.00390625,-0.025390625,0.009765625,-0.015625,0.0,0.0,0.0
37851825,30081,0,1.00390625,-0.029296875,0.0078125,-0.021484375,0.0,0.0,0.0
37853076,30082,0,1.009765625,-0.025390625,0.013671875,-0.01171875,0.0,0.0,0.0
37854326,30083,0,1.0078125,-0.02734375,0.01171875,-0.015625,0.0,0.0,0.0
37855577,30084,0,1.0078125,-0.0234375,0.017578125,-0.005859375,0.0,0.0,0.0
37856828,30085,0,1.001953125,-0.02734375,0.013671875,-0.013671875,0.0,0.0,0.0
37858078,30086,0,1.0078125,-0.02734375,0.015625,-0.01171875,0.0,0.0,0.0
37859329,30087,0,1.0078125,-0.03125,0.017578125,-0.013671875,0.0,0.0,0.0
37860581,30088,0,1.005859375,-0.029296875,0.01953125,-0.009765625,0.0,0.0,0.0
37861833,30089,0,1.001953125,-0.03125,0.015625,-0.015625,0.0,0.0,0.0
37863083,30090,0,0.994140625,-0.02734375,0.013671875,-0.013671875,0.0,0.0,0.0
37864333,30091,0,1.00390625,-0.033203125,0.0078125,-0.025390625,0.0,0.0,0.0
37865584,30092,0,1.005859375,-0.02734375,0.015625,-0.01171875,0.0,0.0,0.0
37866835,30093,0,0.998046875,-0.025390625,0.015625,-0.009765625,0.0,0.0,0.0
37868085,30094,0,1.0078125,-0.025390625,0.015625,-0.009765625,0.0,0.0,0.0
37869336,30095,0,1.0078125,-0.03125,0.01171875,-0.01953125,0.0,0.0,0.0
37870587,30096,0,1.0078125,-0.025390625,0.01953125,-0.005859375,0.0,0.0,0.0
37871838,30097,0,1.015625,-0.033203125,0.01171875,-0.021484375,0.0,0.0,0.0
37873090,30098,0,1.005859375,-0.02734375,0.015625,-0.01171875,0.0,0.0,0.0
37874341,30099,0,0.998046875,-0.025390625,0.017578125,-0.0078125,0.0,0.0,0.0
37875592,30100,0,1.00390625,-0.025390625,0.013671875,-0.01171875,0.0,0.0,0.0
37876844,30101,0,1.00390625,-0.0234375,0.013671875,-0.009765625,0.0,0.0,0.0
37878095,30102,0,1.0,-0.0234375,0.009765625,-0.013671875,0.0,0.0,0.0
37879346,30103,0,1.0,-0.02734375,0.013671875,-0.013671875,0.0,0.0,0.0
37880597,30104,0,1.005859375,-0.029296875,0.01953125,-0.009765625,0.0,0.0,0.0
37881849,30105,0,1.005859375,-0.021484375,0.015625,-0.005859375,0.0,0.0,0.0
37883099,30106,0,0.998046875,-0.021484375,0.01953125,-0.001953125,0.0,0.0,0.0
37884351,30107,0,1.001953125,-0.0234375,0.015625,-0.0078125,0.0,0.0,0.0
37885602,30108,0,1.001953125,-0.0234375,0.009765625,-0.013671875,0.0,0.0,0.0
37886854,30109,0,0.998046875,-0.025390625,0.01171875,-0.013671875,0.0,0.0,0.0
37888104,30110,0,1.0078125,-0.02734375,0.015625,-0.01171875,0.0,0.0,0.0
37889354,30111,0,1.0078125,-0.0234375,0.017578125,-0.005859375,0.0,0.0,0.0
37890605,30112,0,1.0,-0.02734375,0.015625,-0.01171875,0.0,0.0,0.0
37891855,30113,0,1.013671875,-0.029296875,0.01953125,-0.009765625,0.0,0.0,0.0
37893107,30114,0,1.0078125,-0.02734375,0.013671875,-0.013671875,0.0,0.0,0.0
37894358,30115,0,1.01171875,-0.025390625,0.015625,-0.009765625,0.0,0.0,0.0
37895609,30116,0,1.009765625,-0.0234375,0.013671875,-0.009765625,0.0,0.0,0.0
37896859,30117,0,1.0078125,-0.025390625,0.013671875,-0.01171875,0.0,0.0,0.0
37898111,30118,0,1.005859375,-0.021484375,0.021484375,0.0,0.0,0.0,0.0
37899362,30119,0,1.001953125,-0.021484375,0.01171875,-0.009765625,0.0,0.0,0.0
37900613,30120,0,1.00390625,-0.025390625,0.013671875,-0.01171875,0.0,0.0,0.0
37901865,30121,0,1.00390625,-0.025390625,0.01171875,-0.013671875,0.0,0.0,0.0
37903115,30122,0,1.005859375,-0.0234375,0.015625,-0.0078125,0.0,0.0,0.0
37904365,30123,0,1.005859375,-0.02734375,0.015625,-0.01171875,0.0,0.0,0.0
37905617,30124,0,1.001953125,-0.025390625,0.015625,-0.009765625,0.0,0.0,0.0
37906867,30125,0,1.005859375,-0.025390625,0.009765625,-0.015625,0.0,0.0,0.0
37908118,30126,0,1.005859375,-0.025390625,0.013671875,-0.01171875,0.0,0.0,0.0
37909369,30127,0,1.005859375,-0.025390625,0.01171875,-0.013671875,0.0,0.0,0.0
37910620,30128,0,1.009765625,-0.02734375,0.015625,-0.01171875,0.0,0.0,0.0
37911871,30129,0,1.001953125,-0.02734375,0.017578125,-0.009765625,0.0,0.0,0.0
37913123,30130,0,1.001953125,-0.02734375,0.015625,-0.01171875,0.0,0.0,0.0
37914374,30131,0,1.005859375,-0.021484375,0.015625,-0.005859375,0.0,0.0,0.0
37915624,30132,0,1.001953125,-0.021484375,0.01953125,-0.001953125,0.0,0.0,0.0
37916875,30133,0,1.00390625,-0.0234375,0.017578125,-0.005859375,0.0,0.0,0.0
37918125,30134,0,1.0,-0.02734375,0.01171875,-0.015625,0.0,0.0,0.0
37919375,30135,0,1.005859375,-0.029296875,0.01953125,-0.009765625,0.0,0.0,0.0
37920626,30136,0,1.001953125,-0.033203125,0.0078125,-0.025390625,0.0,0.0,0.0
37921877,30137,0,1.005859375,-0.029296875,0.01171875,-0.017578125,0.0,0.0,0.0
37923129,30138,0,1.00390625,-0.0234375,0.01171875,-0.01171875,0.0,0.0,0.0
37924380,30139,0,0.998046875,-0.021484375,0.021484375,0.0,0.0,0.0,0.0
37925630,30140,0,1.005859375,-0.02734375,0.01953125,-0.0078125,0.0,0.0,0.0
37926881,30141,0,1.0,-0.029296875,0.021484375,-0.0078125,0.0,0.0,0.0
37928133,30142,0,1.0078125,-0.0234375,0.013671875,-0.009765625,0.0,0.0,0.0
37929384,30143,0,1.001953125,-0.02734375,0.017578125,-0.009765625,0.0,0.0,0.0
37930634,30144,0,1.00390625,-0.025390625,0.015625,-0.009765625,0.0,0.0,0.0
37931886,30145,0,1.001953125,-0.0234375,0.013671875,-0.009765625,0.0,0.0,0.0
37933136,30146,0,1.001953125,-0.03125,0.01953125,-0.01171875,0.0,0.0,0.0
37934386,30147,0,1.005859375,-0.025390625,0.015625,-0.009765625,0.0,0.0,0.0
37935638,30148,0,1.005859375,-0.029296875,0.01953125,-0.009765625,0.0,0.0,0.0
37936888,30149,0,1.001953125,-0.02734375,0.01953125,-0.0078125,0.0,0.0,0.0
37938139,30150,0,1.001953125,-0.029296875,0.013671875,-0.015625,0.0,0.0,0.0
37939391,30151,0,1.0078125,-0.029296875,0.009765625,-0.01953125,0.0,0.0,0.0
37940641,30152,0,1.001953125,-0.025390625,0.01171875,-0.013671875,0.0,0.0,0.0
37941892,30153,0,1.0,-0.029296875,0.013671875,-0.015625,0.0,0.0,0.0
37943142,30154,0,0.998046875,-0.029296875,0.013671875,-0.015625,0.0,0.0,0.0
37944393,30155,0,1.0078125,-0.025390625,0.01171875,-0.013671875,0.0,0.0,0.0
37945645,30156,0,1.009765625,-0.0234375,0.013671875,-0.009765625,0.0,0.0,0.0
37946895,30157,0,1.0,-0.025390625,0.01953125,-0.005859375,0.0,0.0,0.0
37948147,30158,0,0.99609375,-0.02734375,0.017578125,-0.009765625,0.0,0.0,0.0
37949397,30159,0,1.001953125,-0.02734375,0.01953125,-0.0078125,0.0,0.0,0.0
37950649,30160,0,1.00390625,-0.0234375,0.013671875,-0.009765625,0.0,0.0,0.0
37951899,30161,0,1.01171875,-0.025390625,0.013671875,-0.01171875,0.0,0.0,0.0
37953149,30162,0,1.00390625,-0.025390625,0.015625,-0.009765625,0.0,0.0,0.0
37954399,30163,0,1.009765625,-0.029296875,0.021484375,-0.0078125,0.0,0.0,0.0
37955650,30164,0,1.001953125,-0.02734375,0.015625,-0.01171875,0.0,0.0,0.0
37956902,30165,0,0.998046875,-0.025390625,0.017578125,-0.0078125,0.0,0.0,0.0
37958153,30166,0,1.0,-0.02734375,0.013671875,-0.013671875,0.0,0.0,0.0
37959404,30167,0,1.0,-0.02734375,0.015625,-0.01171875,0.0,0.0,0.0
37960654,30168,0,1.0078125,-0.02734375,0.015625,-0.01171875,0.0,0.0,0.0
37961904,30169,0,1.005859375,-0.0234375,0.009765625,-0.013671875,0.0,0.0,0.0
37963155,30170,0,1.00390625,-0.021484375,0.017578125,-0.00390625,0.0,0.0,0.0
37964407,30171,0,0.998046875,-0.025390625,0.009765625,-0.015625,0.0,0.0,0.0
37965657,30172,0,1.00390625,-0.025390625,0.017578125,-0.0078125,0.0,0.0,0.0
37966909,30173,0,1.00390625,-0.025390625,0.015625,-0.009765625,0.0,0.0,0.0
37968159,30174,0,1.00390625,-0.025390625,0.021484375,-0.00390625,0.0,0.0,0.0
37969409,30175,0,1.001953125,-0.0234375,0.017578125,-0.005859375,0.0,0.0,0.0
37970661,30176,0,1.009765625,-0.021484375,0.021484375,0.0,0.0,0.0,0.0
37971911,30177,0,0.99609375,-0.02734375,0.017578125,-0.009765625,0.0,0.0,0.0
37973161,30178,0,1.001953125,-0.029296875,0.01953125,-0.009765625,0.0,0.0,0.0
37974411,30179,0,0.9921875,-0.025390625,0.017578125,-0.0078125,0.0,0.0,0.0
37975663,30180,0,1.0,-0.029296875,0.015625,-0.013671875,0.0,0.0,0.0
37976913,30181,0,1.009765625,-0.0234375,0.015625,-0.0078125,0.0,0.0,0.0
