t_us,frame_id,sensor_id,accX,accY,accZ,acc_sum_YZ,magX,magY,magZ
24937584,19757,0,1.005859375,-0.029296875,0.013671875,-0.015625,0.0,0.0,0.0
24938834,19758,0,1.001953125,-0.029296875,0.01953125,-0.009765625,0.0,0.0,0.0
24940085,19759,0,1.00390625,-0.029296875,0.015625,-0.013671875,0.0,0.0,0.0
24941336,19760,0,1.0,-0.02734375,0.015625,-0.01171875,0.0,0.0,0.0
24942587,19761,0,1.001953125,-0.02734375,0.01953125,-0.0078125,0.0,0.0,0.0
24943838,19762,0,1.009765625,-0.029296875,0.021484375,-0.0078125,0.0,0.0,0.0
24945090,19763,0,1.00390625,-0.0234375,0.021484375,-0.001953125,0.0,0.0,0.0
24946341,19764,0,1.0078125,-0.03125,0.01953125,-0.01171875,0.0,0.0,0.0
24947592,19765,0,1.00390625,-0.03125,0.01171875,-0.01953125,0.0,0.0,0.0
24948844,19766,0,0.990234375,-0.029296875,0.025390625,-0.00390625,0.0,0.0,0.0
24950095,19767,0,1.0,-0.03125,0.017578125,-0.013671875,0.0,0.0,0.0
24951346,19768,0,1.0,-0.03515625,0.013671875,-0.021484375,0.0,0.0,0.0
24952597,19769,0,0.998046875,-0.02734375,0.015625,-0.01171875,0.0,0.0,0.0
24953849,19770,0,1.01171875,-0.033203125,0.009765625,-0.0234375,0.0,0.0,0.0
24955099,19771,0,1.009765625,-0.02734375,0.017578125,-0.009765625,0.0,0.0,0.0
24956351,19772,0,1.013671875,-0.03125,0.015625,-0.015625,0.0,0.0,0.0
24957602,19773,0,1.0078125,-0.03515625,0.017578125,-0.017578125,0.0,0.0,0.0
24958854,19774,0,1.00390625,-0.03125,0.017578125,-0.013671875,0.0,0.0,0.0
24960104,19775,0,0.998046875,-0.03125,0.021484375,-0.009765625,0.0,0.0,0.0
24961354,19776,0,1.0,-0.033203125,0.017578125,-0.015625,0.0,0.0,0.0
24962605,19777,0,0.998046875,-0.03125,0.013671875,-0.017578125,0.0,0.0,0.0
24963855,19778,0,1.001953125,-0.025390625,0.013671875,-0.01171875,0.0,0.0,0.0
24965107,19779,0,1.00390625,-0.03515625,0.015625,-0.01953125,0.0,0.0,0.0
24966358,19780,0,1.001953125,-0.033203125,0.021484375,-0.01171875,0.0,0.0,0.0
24967609,19781,0,1.001953125,-0.03515625,0.013671875,-0.021484375,0.0,0.0,0.0
24968859,19782,0,1.0078125,-0.029296875,0.0234375,-0.005859375,0.0,0.0,0.0
24970111,19783,0,1.001953125,-0.03125,0.01953125,-0.01171875,0.0,0.0,0.0
24971362,19784,0,1.0,-0.03125,0.025390625,-0.005859375,0.0,0.0,0.0
24972613,19785,0,1.013671875,-0.033203125,0.015625,-0.017578125,0.0,0.0,0.0
24973865,19786,0,1.0,-0.03125,0.017578125,-0.013671875,0.0,0.0,0.0
24975115,19787,0,1.001953125,-0.03125,0.013671875,-0.017578125,0.0,0.0,0.0
24976365,19788,0,1.0078125,-0.029296875,0.0078125,-0.021484375,0.0,0.0,0.0
24977617,19789,0,1.009765625,-0.037109375,0.017578125,-0.01953125,0.0,0.0,0.0
24978867,19790,0,1.0078125,-0.03125,0.025390625,-0.005859375,0.0,0.0,0.0
24980118,19791,0,1.001953125,-0.033203125,0.029296875,-0.00390625,0.0,0.0,0.0
24981369,19792,0,1.0,-0.033203125,0.013671875,-0.01953125,0.0,0.0,0.0
24982620,19793,0,0.998046875,-0.03125,0.021484375,-0.009765625,0.0,0.0,0.0
24983871,19794,0,1.009765625,-0.03125,0.021484375,-0.009765625,0.0,0.0,0.0
24985123,19795,0,1.00390625,-0.03125,0.015625,-0.015625,0.0,0.0,0.0
24986374,19796,0,1.005859375,-0.03515625,0.01953125,-0.015625,0.0,0.0,0.0
24987624,19797,0,1.00390625,-0.02734375,0.017578125,-0.009765625,0.0,0.0,0.0
24988875,19798,0,1.005859375,-0.029296875,0.017578125,-0.01171875,0.0,0.0,0.0
24990125,19799,0,1.0,-0.03125,0.015625,-0.015625,0.0,0.0,0.0
24991375,19800,0,1.00390625,-0.03125,0.01953125,-0.01171875,0.0,0.0,0.0
24992626,19801,0,1.00390625,-0.033203125,0.021484375,-0.01171875,0.0,0.0,0.0
24993877,19802,0,1.005859375,-0.03125,0.01953125,-0.01171875,0.0,0.0,0.0
24995129,19803,0,1.0078125,-0.029296875,0.01953125,-0.009765625,0.0,0.0,0.0
24996380,19804,0,1.001953125,-0.03125,0.017578125,-0.013671875,0.0,0.0,0.0
24997630,19805,0,1.001953125,-0.037109375,0.01953125,-0.017578125,0.0,0.0,0.0
24998881,19806,0,1.001953125,-0.025390625,0.021484375,-0.00390625,0.0,0.0,0.0
25000133,19807,0,1.0,-0.03125,0.01953125,-0.01171875,0.0,0.0,0.0
25001384,19808,0,1.015625,-0.025390625,0.021484375,-0.00390625,0.0,0.0,0.0
25002634,19809,0,1.015625,-0.02734375,0.01953125,-0.0078125,0.0,0.0,0.0
25003886,19810,0,1.001953125,-0.0234375,0.0234375,0.0,0.0,0.0,0.0
25005136,19811,0,1.001953125,-0.029296875,0.009765625,-0.01953125,0.0,0.0,0.0
25006386,19812,0,1.0078125,-0.03125,0.017578125,-0.013671875,0.0,0.0,0.0
25007638,19813,0,1.001953125,-0.03515625,0.01953125,-0.015625,0.0,0.0,0.0
25008888,19814,0,1.015625,-0.03125,0.01953125,-0.01171875,0.0,0.0,0.0
25010139,19815,0,0.994140625,-0.029296875,0.01953125,-0.009765625,0.0,0.0,0.0
25011391,19816,0,1.0,-0.0234375,0.0234375,0.0,0.0,0.0,0.0
25012641,19817,0,1.009765625,-0.029296875,0.01953125,-0.009765625,0.0,0.0,0.0
25013892,19818,0,1.005859375,-0.03125,0.017578125,-0.013671875,0.0,0.0,0.0
25015142,19819,0,1.00390625,-0.029296875,0.017578125,-0.01171875,0.0,0.0,0.0
25016393,19820,0,1.001953125,-0.03125,0.01953125,-0.01171875,0.0,0.0,0.0
25017645,19821,0,1.00390625,-0.029296875,0.0234375,-0.005859375,0.0,0.0,0.0
25018895,19822,0,1.001953125,-0.029296875,0.0234375,-0.005859375,0.0,0.0,0.0
25020147,19823,0,0.99609375,-0.025390625,0.017578125,-0.0078125,0.0,0.0,0.0
25021397,19824,0,1.0,-0.029296875,0.01953125,-0.009765625,0.0,0.0,0.0
25022649,19825,0,1.001953125,-0.025390625,0.0234375,-0.001953125,0.0,0.0,0.0
25023899,19826,0,1.001953125,-0.02734375,0.0234375,-0.00390625,0.0,0.0,0.0
25025149,19827,0,1.0,-0.029296875,0.021484375,-0.0078125,0.0,0.0,0.0
25026399,19828,0,1.00390625,-0.025390625,0.00390625,-0.021484375,0.0,0.0,0.0
25027650,19829,0,1.005859375,-0.02734375,0.017578125,-0.009765625,0.0,0.0,0.0
25028902,19830,0,1.005859375,-0.03125,0.015625,-0.015625,0.0,0.0,0.0
25030153,19831,0,1.001953125,-0.033203125,0.03125,-0.001953125,0.0,0.0,0.0
25031404,19832,0,1.0078125,-0.033203125,0.021484375,-0.01171875,0.0,0.0,0.0
25032654,19833,0,1.001953125,-0.033203125,0.017578125,-0.015625,0.0,0.0,0.0
25033904,19834,0,1.001953125,-0.03125,0.021484375,-0.009765625,0.0,0.0,0.0
25035155,19835,0,1.0,-0.03125,0.015625,-0.015625,0.0,0.0,0.0
25036407,19836,0,1.005859375,-0.033203125,0.017578125,-0.015625,0.0,0.0,0.0
25037657,19837,0,1.005859375,-0.029296875,0.015625,-0.013671875,0.0,0.0,0.0
25038909,19838,0,1.0078125,-0.03125,0.021484375,-0.009765625,0.0,0.0,0.0
25040159,19839,0,0.998046875,-0.03515625,0.021484375,-0.013671875,0.0,0.0,0.0
25041409,19840,0,1.00390625,-0.03125,0.01953125,-0.01171875,0.0,0.0,0.0
25042661,19841,0,1.001953125,-0.033203125,0.021484375,-0.01171875,0.0,0.0,0.0
25043911,19842,0,1.005859375,-0.029296875,0.0234375,-0.005859375,0.0,0.0,0.0
25045161,19843,0,1.00390625,-0.033203125,0.025390625,-0.0078125,0.0,0.0,0.0
25046411,19844,0,1.00390625,-0.03125,0.01953125,-0.01171875,0.0,0.0,0.0
25047663,19845,0,1.001953125,-0.029296875,0.017578125,-0.01171875,0.0,0.0,0.0
25048913,19846,0,1.00390625,-0.03125,0.013671875,-0.017578125,0.0,0.0,0.0
25050164,19847,0,1.001953125,-0.029296875,0.017578125,-0.01171875,0.0,0.0,0.0
25051415,19848,0,1.001953125,-0.033203125,0.017578125,-0.015625,0.0,0.0,0.0
25052666,19849,0,1.009765625,-0.033203125,0.01953125,-0.013671875,0.0,0.0,0.0
25053916,19850,0,1.0078125,-0.029296875,0.01953125,-0.009765625,0.0,0.0,0.0
25055167,19851,0,0.994140625,-0.029296875,0.013671875,-0.015625,0.0,0.0,0.0
25056417,19852,0,1.01171875,-0.021484375,0.017578125,-0.00390625,0.0,0.0,0.0
25057668,19853,0,1.00390625,-0.03515625,0.013671875,-0.021484375,0.0,0.0,0.0
25058920,19854,0,1.009765625,-0.033203125,0.01171875,-0.021484375,0.0,0.0,0.0
25060171,19855,0,1.00390625,-0.02734375,0.017578125,-0.009765625,0.0,0.0,0.0
25061421,19856,0,0.998046875,-0.03125,0.025390625,-0.005859375,0.0,0.0,0.0
25062672,19857,0,1.005859375,-0.029296875,0.025390625,-0.00390625,0.0,0.0,0.0
25063924,19858,0,1.009765625,-0.029296875,0.021484375,-0.0078125,0.0,0.0,0.0
25065174,19859,0,1.001953125,-0.029296875,0.01171875,-0.017578125,0.0,0.0,0.0
25066425,19860,0,1.0078125,-0.02734375,0.021484375,-0.005859375,0.0,0.0,0.0
25067677,19861,0,0.99609375,-0.029296875,0.01953125,-0.009765625,0.0,0.0,0.0
25068927,19862,0,1.0078125,-0.03125,0.017578125,-0.013671875,0.0,0.0,0.0
25070177,19863,0,0.99609375,-0.02734375,0.021484375,-0.005859375,0.0,0.0,0.0
25071429,19864,0,1.0078125,-0.029296875,0.021484375,-0.0078125,0.0,0.0,0.0
25072679,19865,0,1.00390625,-0.02734375,0.017578125,-0.009765625,0.0,0.0,0.0
25073931,19866,0,0.998046875,-0.02734375,0.0234375,-0.00390625,0.0,0.0,0.0
25075181,19867,0,0.998046875,-0.033203125,0.01953125,-0.013671875,0.0,0.0,0.0
25076431,19868,0,0.998046875,-0.029296875,0.01953125,-0.009765625,0.0,0.0,0.0
25077683,19869,0,1.005859375,-0.03515625,0.0234375,-0.01171875,0.0,0.0,0.0
25078933,19870,0,1.005859375,-0.03125,0.015625,-0.015625,0.0,0.0,0.0
25080183,19871,0,1.005859375,-0.03125,0.021484375,-0.009765625,0.0,0.0,0.0
25081434,19872,0,1.00390625,-0.033203125,0.013671875,-0.01953125,0.0,0.0,0.0
25082685,19873,0,0.998046875,-0.033203125,0.021484375,-0.01171875,0.0,0.0,0.0
25083936,19874,0,0.990234375,-0.033203125,0.021484375,-0.01171875,0.0,0.0,0.0
25085186,19875,0,1.0078125,-0.029296875,0.021484375,-0.0078125,0.0,0.0,0.0
25086437,19876,0,1.0078125,-0.025390625,0.025390625,0.0,0.0,0.0,0.0
25087687,19877,0,1.015625,-0.025390625,0.01953125,-0.005859375,0.0,0.0,0.0
25088937,19878,0,1.005859375,-0.029296875,0.005859375,-0.0234375,0.0,0.0,0.0
25090188,19879,0,1.00390625,-0.033203125,0.015625,-0.017578125,0.0,0.0,0.0
25091440,19880,0,1.005859375,-0.029296875,0.017578125,-0.01171875,0.0,0.0,0.0
25092690,19881,0,1.0,-0.033203125,0.021484375,-0.01171875,0.0,0.0,0.0
25093942,19882,0,1.0078125,-0.03125,0.01171875,-0.01953125,0.0,0.0,0.0
25095193,19883,0,1.005859375,-0.03125,0.013671875,-0.017578125,0.0,0.0,0.0
25096445,19884,0,1.005859375,-0.029296875,0.01953125,-0.009765625,0.0,0.0,0.0
25097695,19885,0,1.009765625,-0.029296875,0.017578125,-0.01171875,0.0,0.0,0.0
25098947,19886,0,1.005859375,-0.029296875,0.01953125,-0.009765625,0.0,0.0,0.0
25100198,19887,0,0.998046875,-0.033203125,0.01953125,-0.013671875,0.0,0.0,0.0
25101450,19888,0,1.0078125,-0.033203125,0.013671875,-0.01953125,0.0,0.0,0.0
25102700,19889,0,1.005859375,-0.02734375,0.015625,-0.01171875,0.0,0.0,0.0
25103952,19890,0,1.0078125,-0.03125,0.015625,-0.015625,0.0,0.0,0.0
25105203,19891,0,1.005859375,-0.029296875,0.01953125,-0.009765625,0.0,0.0,0.0
25106454,19892,0,0.998046875,-0.025390625,0.017578125,-0.0078125,0.0,0.0,0.0
25107705,19893,0,1.005859375,-0.03125,0.015625,-0.015625,0.0,0.0,0.0
25108957,19894,0,0.99609375,-0.033203125,0.01953125,-0.013671875,0.0,0.0,0.0
25110207,19895,0,0.99609375,-0.03125,0.025390625,-0.005859375,0.0,0.0,0.0
25111459,19896,0,0.9921875,-0.03125,0.01953125,-0.01171875,0.0,0.0,0.0
25112709,19897,0,1.00390625,-0.037109375,0.01953125,-0.017578125,0.0,0.0,0.0
25113959,19898,0,1.00390625,-0.03515625,0.021484375,-0.013671875,0.0,0.0,0.0
25115209,19899,0,1.00390625,-0.03125,0.01953125,-0.01171875,0.0,0.0,0.0
25116459,19900,0,1.0,-0.033203125,0.01171875,-0.021484375,0.0,0.0,0.0
25117711,19901,0,1.00390625,-0.02734375,0.017578125,-0.009765625,0.0,0.0,0.0
25118961,19902,0,1.005859375,-0.033203125,0.017578125,-0.015625,0.0,0.0,0.0
25120213,19903,0,1.0,-0.03125,0.01953125,-0.01171875,0.0,0.0,0.0
25121464,19904,0,1.0,-0.03125,0.017578125,-0.013671875,0.0,0.0,0.0
25122715,19905,0,1.005859375,-0.029296875,0.013671875,-0.015625,0.0,0.0,0.0
25123966,19906,0,1.00390625,-0.02734375,0.0078125,-0.01953125,0.0,0.0,0.0
25125216,19907,0,1.005859375,-0.02734375,0.015625,-0.01171875,0.0,0.0,0.0
25126467,19908,0,1.00390625,-0.03125,0.01953125,-0.01171875,0.0,0.0,0.0
25127718,19909,0,1.00390625,-0.033203125,0.01953125,-0.013671875,0.0,0.0,0.0
25128968,19910,0,1.0,-0.025390625,0.021484375,-0.00390625,0.0,0.0,0.0
25130219,19911,0,1.0,-0.029296875,0.021484375,-0.0078125,0.0,0.0,0.0
25131470,19912,0,1.001953125,-0.033203125,0.015625,-0.017578125,0.0,0.0,0.0
25132721,19913,0,0.998046875,-0.03515625,0.021484375,-0.013671875,0.0,0.0,0.0
25133971,19914,0,1.001953125,-0.02734375,0.01953125,-0.0078125,0.0,0.0,0.0
25135223,19915,0,1.005859375,-0.025390625,0.01953125,-0.005859375,0.0,0.0,0.0
25136473,19916,0,1.0,-0.03125,0.025390625,-0.005859375,0.0,0.0,0.0
25137723,19917,0,0.99609375,-0.03125,0.01953125,-0.01171875,0.0,0.0,0.0
25138975,19918,0,1.0,-0.025390625,0.01953125,-0.005859375,0.0,0.0,0.0
25140226,19919,0,1.00390625,-0.03125,0.0234375,-0.0078125,0.0,0.0,0.0
25141476,19920,0,1.001953125,-0.03125,0.01171875,-0.01953125,0.0,0.0,0.0
25142728,19921,0,1.00390625,-0.03125,0.021484375,-0.009765625,0.0,0.0,0.0
25143979,19922,0,1.009765625,-0.03515625,0.021484375,-0.013671875,0.0,0.0,0.0
25145229,19923,0,1.0078125,-0.029296875,0.015625,-0.013671875,0.0,0.0,0.0
25146481,19924,0,1.009765625,-0.029296875,0.021484375,-0.0078125,0.0,0.0,0.0
25147731,19925,0,1.00390625,-0.033203125,0.015625,-0.017578125,0.0,0.0,0.0
25148981,19926,0,1.005859375,-0.03125,0.021484375,-0.009765625,0.0,0.0,0.0
25150232,19927,0,1.00390625,-0.02734375,0.015625,-0.01171875,0.0,0.0,0.0
25151483,19928,0,1.00390625,-0.03515625,0.01953125,-0.015625,0.0,0.0,0.0
25152734,19929,0,0.99609375,-0.037109375,0.013671875,-0.0234375,0.0,0.0,0.0
25153986,19930,0,1.005859375,-0.029296875,0.021484375,-0.0078125,0.0,0.0,0.0
25155236,19931,0,0.998046875,-0.03125,0.01953125,-0.01171875,0.0,0.0,0.0
25156486,19932,0,1.00390625,-0.029296875,0.013671875,-0.015625,0.0,0.0,0.0
25157737,19933,0,1.001953125,-0.03125,0.013671875,-0.017578125,0.0,0.0,0.0
25158987,19934,0,1.01171875,-0.029296875,0.01953125,-0.009765625,0.0,0.0,0.0
25160238,19935,0,1.0078125,-0.033203125,0.013671875,-0.01953125,0.0,0.0,0.0
25161489,19936,0,1.001953125,-0.03515625,0.01953125,-0.015625,0.0,0.0,0.0
25162740,19937,0,0.998046875,-0.03515625,0.025390625,-0.009765625,0.0,0.0,0.0
25163991,19938,0,1.0,-0.029296875,0.017578125,-0.01171875,0.0,0.0,0.0
25165241,19939,0,1.017578125,-0.033203125,0.01953125,-0.013671875,0.0,0.0,0.0
25166492,19940,0,1.005859375,-0.041015625,0.017578125,-0.0234375,0.0,0.0,0.0
25167744,19941,0,1.005859375,-0.033203125,0.025390625,-0.0078125,0.0,0.0,0.0
25168994,19942,0,1.001953125,-0.025390625,0.013671875,-0.01171875,0.0,0.0,0.0
25170245,19943,0,1.009765625,-0.029296875,0.017578125,-0.01171875,0.0,0.0,0.0
25171496,19944,0,1.0078125,-0.033203125,0.021484375,-0.01171875,0.0,0.0,0.0
25172747,19945,0,1.0078125,-0.03125,0.015625,-0.015625,0.0,0.0,0.0
25173998,19946,0,1.001953125,-0.03125,0.0234375,-0.0078125,0.0,0.0,0.0
25175249,19947,0,1.001953125,-0.02734375,0.021484375,-0.005859375,0.0,0.0,0.0
25176499,19948,0,1.00390625,-0.03125,0.017578125,-0.013671875,0.0,0.0,0.0
25177751,19949,0,1.005859375,-0.029296875,0.01953125,-0.009765625,0.0,0.0,0.0
25179002,19950,0,1.00390625,-0.02734375,0.009765625,-0.017578125,0.0,0.0,0.0
25180253,19951,0,1.0,-0.03125,0.015625,-0.015625,0.0,0.0,0.0
25181503,19952,0,1.0,-0.029296875,0.017578125,-0.01171875,0.0,0.0,0.0
25182755,19953,0,0.99609375,-0.02734375,0.017578125,-0.009765625,0.0,0.0,0.0
25184005,19954,0,1.009765625,-0.03125,0.01953125,-0.01171875,0.0,0.0,0.0
25185256,19955,0,1.00390625,-0.03125,0.009765625,-0.021484375,0.0,0.0,0.0
25186506,19956,0,1.001953125,-0.029296875,0.01953125,-0.009765625,0.0,0.0,0.0
25187757,19957,0,1.00390625,-0.029296875,0.017578125,-0.01171875,0.0,0.0,0.0
25189008,19958,0,1.0078125,-0.029296875,0.013671875,-0.015625,0.0,0.0,0.0
25190258,19959,0,1.009765625,-0.029296875,0.009765625,-0.01953125,0.0,0.0,0.0
25191508,19960,0,1.005859375,-0.0234375,0.01953125,-0.00390625,0.0,0.0,0.0
25192759,19961,0,0.998046875,-0.021484375,0.01171875,-0.009765625,0.0,0.0,0.0
25194009,19962,0,1.009765625,-0.03515625,0.0234375,-0.01171875,0.0,0.0,0.0
25195259,19963,0,1.005859375,-0.03515625,0.01953125,-0.015625,0.0,0.0,0.0
25196510,19964,0,1.001953125,-0.03125,0.021484375,-0.009765625,0.0,0.0,0.0
25197762,19965,0,0.994140625,-0.03515625,0.015625,-0.01953125,0.0,0.0,0.0
25199012,19966,0,1.00390625,-0.029296875,0.017578125,-0.01171875,0.0,0.0,0.0
25200271,19967,0,0.99609375,-0.033203125,0.021484375,-0.01171875,0.0,0.0,0.0
25201521,19968,0,1.00390625,-0.03515625,0.0234375,-0.01171875,0.0,0.0,0.0
25202773,19969,0,1.0,-0.029296875,0.015625,-0.013671875,0.0,0.0,0.0
25204023,19970,0,1.0,-0.029296875,0.017578125,-0.01171875,0.0,0.0,0.0
25205274,19971,0,1.005859375,-0.029296875,0.015625,-0.013671875,0.0,0.0,0.0
25206525,19972,0,1.0078125,-0.029296875,0.021484375,-0.0078125,0.0,0.0,0.0
25207776,19973,0,1.0078125,-0.0234375,0.01953125,-0.00390625,0.0,0.0,0.0
25209026,19974,0,1.00390625,-0.029296875,0.01953125,-0.009765625,0.0,0.0,0.0
25210276,19975,0,0.99609375,-0.03125,0.017578125,-0.013671875,0.0,0.0,0.0
25211527,19976,0,1.005859375,-0.03515625,0.01953125,-0.015625,0.0,0.0,0.0
25212778,19977,0,1.00390625,-0.029296875,0.01953125,-0.009765625,0.0,0.0,0.0
25214029,19978,0,1.005859375,-0.02734375,0.01953125,-0.0078125,0.0,0.0,0.0
25215280,19979,0,1.0078125,-0.025390625,0.021484375,-0.00390625,0.0,0.0,0.0
25216531,19980,0,1.00390625,-0.033203125,0.013671875,-0.01953125,0.0,0.0,0.0
25217783,19981,0,1.009765625,-0.0234375,0.015625,-0.0078125,0.0,0.0,0.0
25219034,19982,0,1.01953125,-0.033203125,0.013671875,-0.01953125,0.0,0.0,0.0
25220286,19983,0,1.015625,-0.02734375,0.015625,-0.01171875,0.0,0.0,0.0
25221537,19984,0,1.013671875,-0.03125,0.009765625,-0.021484375,0.0,0.0,0.0
25222789,19985,0,0.994140625,-0.033203125,0.017578125,-0.015625,0.0,0.0,0.0
25224039,19986,0,0.998046875,-0.029296875,0.017578125,-0.01171875,0.0,0.0,0.0
25225289,19987,0,1.0,-0.03125,0.013671875,-0.017578125,0.0,0.0,0.0
25226541,19988,0,1.005859375,-0.03125,0.01171875,-0.01953125,0.0,0.0,0.0
25227792,19989,0,1.001953125,-0.03125,0.015625,-0.015625,0.0,0.0,0.0
25229044,19990,0,1.0,-0.02734375,0.021484375,-0.005859375,0.0,0.0,0.0
25230294,19991,0,1.00390625,-0.033203125,0.017578125,-0.015625,0.0,0.0,0.0
25231544,19992,0,1.0,-0.033203125,0.01953125,-0.013671875,0.0,0.0,0.0
25232795,19993,0,1.001953125,-0.02734375,0.021484375,-0.005859375,0.0,0.0,0.0
25234045,19994,0,1.00390625,-0.03125,0.01953125,-0.01171875,0.0,0.0,0.0
25235295,19995,0,1.005859375,-0.02734375,0.01171875,-0.015625,0.0,0.0,0.0
25236546,19996,0,1.00390625,-0.029296875,0.017578125,-0.01171875,0.0,0.0,0.0
25237797,19997,0,1.0078125,-0.03515625,0.017578125,-0.017578125,0.0,0.0,0.0
25239048,19998,0,1.001953125,-0.029296875,0.021484375,-0.0078125,0.0,0.0,0.0
25240299,19999,0,1.005859375,-0.025390625,0.01953125,-0.005859375,0.0,0.0,0.0
25241550,20000,0,1.005859375,-0.033203125,0.013671875,-0.01953125,0.0,0.0,0.0
25242800,20001,0,0.99609375,-0.03125,0.021484375,-0.009765625,0.0,0.0,0.0
25244052,20002,0,1.013671875,-0.033203125,0.015625,-0.017578125,0.0,0.0,0.0
25245303,20003,0,1.013671875,-0.03125,0.021484375,-0.009765625,0.0,0.0,0.0
25246554,20004,0,1.00390625,-0.033203125,0.015625,-0.017578125,0.0,0.0,0.0
25247805,20005,0,1.001953125,-0.033203125,0.0234375,-0.009765625,0.0,0.0,0.0
25249057,20006,0,1.001953125,-0.02734375,0.015625,-0.01171875,0.0,0.0,0.0
25250308,20007,0,1.001953125,-0.03125,0.017578125,-0.013671875,0.0,0.0,0.0
25251560,20008,0,1.00390625,-0.03125,0.017578125,-0.013671875,0.0,0.0,0.0
25252811,20009,0,1.005859375,-0.03515625,0.01953125,-0.015625,0.0,0.0,0.0
25254063,20010,0,1.0078125,-0.033203125,0.01953125,-0.013671875,0.0,0.0,0.0
25255314,20011,0,1.0078125,-0.029296875,0.017578125,-0.01171875,0.0,0.0,0.0
25256565,20012,0,1.005859375,-0.029296875,0.015625,-0.013671875,0.0,0.0,0.0
25257816,20013,0,1.005859375,-0.03125,0.021484375,-0.009765625,0.0,0.0,0.0
25259066,20014,0,1.0078125,-0.029296875,0.017578125,-0.01171875,0.0,0.0,0.0
25260318,20015,0,1.005859375,-0.029296875,0.0234375,-0.005859375,0.0,0.0,0.0
25261569,20016,0,1.001953125,-0.033203125,0.021484375,-0.01171875,0.0,0.0,0.0
25262819,20017,0,1.001953125,-0.03125,0.01953125,-0.01171875,0.0,0.0,747989632.0
25265321,20019,0,1.001953125,-0.033203125,0.013671875,-0.01953125,0.0,0.0,0.0
25266572,20020,0,1.0078125,-0.029296875,0.017578125,-0.01171875,0.0,0.0,0.0
25267823,20021,0,1.001953125,-0.033203125,0.0234375,-0.009765625,0.0,0.0,0.0
25269074,20022,0,1.009765625,-0.03515625,0.013671875,-0.021484375,0.0,0.0,0.0
25270325,20023,0,1.0,-0.033203125,0.013671875,-0.01953125,0.0,0.0,0.0
25271575,20024,0,1.0,-0.029296875,0.015625,-0.013671875,0.0,0.0,0.0
25272825,20025,0,1.00390625,-0.02734375,0.017578125,-0.009765625,0.0,0.0,0.0
25274076,20026,0,1.00390625,-0.03515625,0.017578125,-0.017578125,0.0,0.0,0.0
25275326,20027,0,1.015625,-0.029296875,0.017578125,-0.01171875,0.0,0.0,0.0
25276577,20028,0,0.998046875,-0.029296875,0.0234375,-0.005859375,0.0,0.0,0.0
25277828,20029,0,1.0,-0.03125,0.0234375,-0.0078125,0.0,0.0,0.0
25279078,20030,0,0.99609375,-0.03515625,0.021484375,-0.013671875,0.0,0.0,0.0
25280329,20031,0,1.0078125,-0.033203125,0.017578125,-0.015625,0.0,0.0,0.0
25281581,20032,0,0.998046875,-0.033203125,0.01171875,-0.021484375,0.0,0.0,0.0
25282833,20033,0,1.00390625,-0.03515625,0.01953125,-0.015625,0.0,0.0,0.0
25284083,20034,0,1.0,-0.03515625,0.013671875,-0.021484375,0.0,0.0,0.0
25285333,20035,0,1.001953125,-0.03125,0.021484375,-0.009765625,0.0,0.0,0.0
25286584,20036,0,1.01171875,-0.03125,0.015625,-0.015625,0.0,0.0,0.0
25287835,20037,0,1.0078125,-0.029296875,0.021484375,-0.0078125,0.0,0.0,0.0
25289085,20038,0,1.005859375,-0.03125,0.017578125,-0.013671875,0.0,0.0,0.0
25290336,20039,0,1.001953125,-0.03125,0.017578125,-0.013671875,0.0,0.0,0.0
25291587,20040,0,0.998046875,-0.02734375,0.017578125,-0.009765625,0.0,0.0,0.0
25292838,20041,0,1.005859375,-0.029296875,0.017578125,-0.01171875,0.0,0.0,0.0
25294090,20042,0,1.001953125,-0.02734375,0.021484375,-0.005859375,0.0,0.0,0.0
25295341,20043,0,1.009765625,-0.037109375,0.021484375,-0.015625,0.0,0.0,0.0
25296592,20044,0,1.0078125,-0.025390625,-0.033203125,-0.05859375,0.0,0.0,0.0
25297844,20045,0,1.005859375,-0.029296875,0.0078125,-0.021484375,0.0,0.0,0.0
25299095,20046,0,1.005859375,-0.03125,0.0078125,-0.0234375,0.0,0.0,0.0
25300346,20047,0,1.001953125,-0.03515625,0.017578125,-0.017578125,0.0,0.0,0.0
25301597,20048,0,1.0,-0.03125,0.01953125,-0.01171875,0.0,0.0,0.0
25302849,20049,0,1.00390625,-0.033203125,0.021484375,-0.01171875,0.0,0.0,0.0
25304099,20050,0,1.0,-0.02734375,0.01953125,-0.0078125,0.0,0.0,0.0
25305351,20051,0,1.0078125,-0.03125,0.021484375,-0.009765625,0.0,0.0,0.0
25306602,20052,0,1.0,-0.03125,0.01953125,-0.01171875,0.0,0.0,0.0
25307854,20053,0,1.005859375,-0.03125,0.01953125,-0.01171875,0.0,0.0,0.0
25309104,20054,0,1.00390625,-0.029296875,0.017578125,-0.01171875,0.0,0.0,0.0
25310354,20055,0,0.998046875,-0.037109375,0.01953125,-0.017578125,0.0,0.0,0.0
25311605,20056,0,1.0078125,-0.029296875,0.021484375,-0.0078125,0.0,0.0,0.0
25312855,20057,0,1.00390625,-0.02734375,0.017578125,-0.009765625,0.0,0.0,0.0
25314107,20058,0,1.00390625,-0.029296875,0.021484375,-0.0078125,0.0,0.0,0.0
25315358,20059,0,1.00390625,-0.03125,0.01953125,-0.01171875,0.0,0.0,0.0
25316609,20060,0,1.005859375,-0.02734375,0.0234375,-0.00390625,0.0,0.0,0.0
25317859,20061,0,1.00390625,-0.025390625,0.021484375,-0.00390625,0.0,0.0,0.0
25319111,20062,0,1.00390625,-0.03125,0.017578125,-0.013671875,0.0,0.0,0.0
25320362,20063,0,1.00390625,-0.033203125,0.017578125,-0.015625,0.0,0.0,0.0
25321613,20064,0,1.005859375,-0.03125,0.017578125,-0.013671875,0.0,0.0,0.0
25322865,20065,0,1.0,-0.03125,0.017578125,-0.013671875,0.0,0.0,0.0
25324115,20066,0,1.001953125,-0.03125,0.01953125,-0.01171875,0.0,0.0,0.0
25325365,20067,0,1.0,-0.03125,0.02734375,-0.00390625,0.0,0.0,0.0
25326617,20068,0,1.0078125,-0.03125,0.01953125,-0.01171875,0.0,0.0,0.0
25327867,20069,0,1.00390625,-0.029296875,0.015625,-0.013671875,0.0,0.0,0.0
25329118,20070,0,1.00390625,-0.02734375,0.021484375,-0.005859375,0.0,0.0,0.0
25330369,20071,0,1.00390625,-0.02734375,0.021484375,-0.005859375,0.0,0.0,0.0
25331620,20072,0,1.009765625,-0.029296875,0.015625,-0.013671875,0.0,0.0,0.0
25332871,20073,0,1.00390625,-0.029296875,0.01953125,-0.009765625,0.0,0.0,0.0
25334123,20074,0,0.998046875,-0.029296875,0.01953125,-0.009765625,0.0,0.0,0.0
25335374,20075,0,1.0,-0.033203125,0.013671875,-0.01953125,0.0,0.0,0.0
25336624,20076,0,1.0078125,-0.029296875,0.015625,-0.013671875,0.0,0.0,0.0
25337875,20077,0,1.00390625,-0.03125,0.021484375,-0.009765625,0.0,0.0,0.0
25339125,20078,0,1.005859375,-0.02734375,0.013671875,-0.013671875,0.0,0.0,0.0
25340375,20079,0,1.00390625,-0.029296875,0.013671875,-0.015625,0.0,0.0,0.0
25341626,20080,0,1.001953125,-0.029296875,0.015625,-0.013671875,0.0,0.0,0.0
25342877,20081,0,1.0,-0.029296875,0.01953125,-0.009765625,0.0,0.0,0.0
25344129,20082,0,1.001953125,-0.03125,0.013671875,-0.017578125,0.0,0.0,0.0
25345380,20083,0,1.009765625,-0.029296875,0.015625,-0.013671875,0.0,0.0,0.0
25346630,20084,0,1.0,-0.03125,0.0234375,-0.0078125,0.0,0.0,0.0
25347881,20085,0,1.0,-0.03515625,0.017578125,-0.017578125,0.0,0.0,0.0
25349133,20086,0,0.998046875,-0.033203125,0.02734375,-0.005859375,0.0,0.0,0.0
25350384,20087,0,1.005859375,-0.03125,0.025390625,-0.005859375,0.0,0.0,0.0
25351634,20088,0,1.0078125,-0.03125,0.009765625,-0.021484375,0.0,0.0,0.0
25352886,20089,0,1.0078125,-0.025390625,0.017578125,-0.0078125,0.0,0.0,0.0
25354136,20090,0,0.998046875,-0.029296875,0.021484375,-0.0078125,0.0,0.0,0.0
25355386,20091,0,0.99609375,-0.03125,0.0234375,-0.0078125,0.0,0.0,0.0
25356638,20092,0,1.005859375,-0.03125,0.01953125,-0.01171875,0.0,0.0,0.0
25357888,20093,0,0.986328125,-0.02734375,0.01953125,-0.0078125,0.0,0.0,0.0
25359139,20094,0,0.998046875,-0.025390625,0.01953125,-0.005859375,0.0,0.0,0.0
25360391,20095,0,1.0,-0.033203125,0.017578125,-0.015625,0.0,0.0,0.0
25361641,20096,0,1.00390625,-0.033203125,0.025390625,-0.0078125,0.0,0.0,0.0
25362892,20097,0,1.0078125,-0.03515625,0.01953125,-0.015625,0.0,0.0,0.0
25364142,20098,0,1.00390625,-0.03125,0.017578125,-0.013671875,0.0,0.0,0.0
25365393,20099,0,1.0078125,-0.02734375,0.015625,-0.01171875,0.0,0.0,0.0
25366645,20100,0,1.00390625,-0.033203125,0.017578125,-0.015625,0.0,0.0,0.0
25367895,20101,0,1.005859375,-0.033203125,0.01953125,-0.013671875,0.0,0.0,0.0
25369147,20102,0,1.00390625,-0.029296875,0.015625,-0.013671875,0.0,0.0,0.0
25370397,20103,0,1.001953125,-0.02734375,0.017578125,-0.009765625,0.0,0.0,0.0
25371649,20104,0,1.0078125,-0.03125,0.0234375,-0.0078125,0.0,0.0,0.0
25372899,20105,0,1.009765625,-0.02734375,0.01953125,-0.0078125,0.0,0.0,0.0
25374149,20106,0,1.005859375,-0.03125,0.01953125,-0.01171875,0.0,0.0,0.0
25375399,20107,0,0.998046875,-0.033203125,0.017578125,-0.015625,0.0,0.0,0.0
25376650,20108,0,1.0,-0.029296875,0.01953125,-0.009765625,0.0,0.0,0.0
25377902,20109,0,1.001953125,-0.03125,0.01953125,-0.01171875,0.0,0.0,0.0
25379153,20110,0,1.001953125,-0.029296875,0.017578125,-0.01171875,0.0,0.0,0.0
25380404,20111,0,1.001953125,-0.029296875,0.01953125,-0.009765625,0.0,0.0,0.0
25381654,20112,0,0.998046875,-0.03125,0.021484375,-0.009765625,0.0,0.0,0.0
25382904,20113,0,1.005859375,-0.02734375,0.021484375,-0.005859375,0.0,0.0,0.0
25384155,20114,0,0.994140625,-0.029296875,0.01953125,-0.009765625,0.0,0.0,0.0
25385407,20115,0,1.009765625,-0.02734375,0.01953125,-0.0078125,0.0,0.0,0.0
25386657,20116,0,1.005859375,-0.029296875,0.021484375,-0.0078125,0.0,0.0,0.0
25387909,20117,0,1.00390625,-0.03125,0.01953125,-0.01171875,0.0,0.0,0.0
25389159,20118,0,1.00390625,-0.029296875,0.017578125,-0.01171875,0.0,0.0,0.0
25390409,20119,0,1.00390625,-0.025390625,0.017578125,-0.0078125,0.0,0.0,0.0
25391661,20120,0,1.00390625,-0.025390625,0.01953125,-0.005859375,0.0,0.0,0.0
25392911,20121,0,1.00390625,-0.03125,0.015625,-0.015625,0.0,0.0,0.0
25394161,20122,0,1.00390625,-0.029296875,0.017578125,-0.01171875,0.0,0.0,0.0
25395411,20123,0,1.001953125,-0.03125,0.015625,-0.015625,0.0,0.0,0.0
25396663,20124,0,1.0,-0.02734375,0.02734375,0.0,0.0,0.0,0.0
25397913,20125,0,0.998046875,-0.025390625,0.01953125,-0.005859375,0.0,0.0,0.0
25399164,20126,0,1.005859375,-0.0234375,0.01953125,-0.00390625,0.0,0.0,0.0
25400415,20127,0,1.005859375,-0.033203125,0.015625,-0.017578125,0.0,0.0,0.0
25401666,20128,0,1.009765625,-0.029296875,0.017578125,-0.01171875,0.0,0.0,0.0
25402916,20129,0,0.998046875,-0.03125,0.021484375,-0.009765625,0.0,0.0,0.0
25404167,20130,0,0.994140625,-0.029296875,0.01953125,-0.009765625,0.0,0.0,0.0
25405417,20131,0,1.0078125,-0.02734375,0.017578125,-0.009765625,0.0,0.0,0.0
25406668,20132,0,1.005859375,-0.037109375,0.0078125,-0.029296875,0.0,0.0,0.0
25407920,20133,0,1.00390625,-0.03515625,0.013671875,-0.021484375,0.0,0.0,0.0
25409171,20134,0,1.001953125,-0.02734375,0.021484375,-0.005859375,0.0,0.0,0.0
25410421,20135,0,1.015625,-0.033203125,0.01953125,-0.013671875,0.0,0.0,0.0
25411672,20136,0,1.0,-0.03125,0.015625,-0.015625,0.0,0.0,0.0
25412924,20137,0,1.0078125,-0.029296875,0.01953125,-0.009765625,0.0,0.0,0.0
25414174,20138,0,0.998046875,-0.02734375,0.01953125,-0.0078125,0.0,0.0,0.0
25415425,20139,0,0.998046875,-0.03515625,0.02734375,-0.0078125,0.0,0.0,0.0
25416677,20140,0,1.001953125,-0.03125,0.021484375,-0.009765625,0.0,0.0,0.0
25417927,20141,0,1.001953125,-0.033203125,0.021484375,-0.01171875,0.0,0.0,0.0
25419177,20142,0,1.001953125,-0.03125,0.021484375,-0.009765625,0.0,0.0,0.0
25420429,20143,0,1.0078125,-0.033203125,0.017578125,-0.015625,0.0,0.0,0.0
25421679,20144,0,1.001953125,-0.029296875,0.01953125,-0.009765625,0.0,0.0,0.0
25422931,20145,0,1.001953125,-0.033203125,0.01953125,-0.013671875,0.0,0.0,0.0
25424181,20146,0,1.0078125,-0.03125,0.015625,-0.015625,0.0,0.0,0.0
25425431,20147,0,1.0,-0.033203125,0.01171875,-0.021484375,0.0,0.0,0.0
25426683,20148,0,1.00390625,-0.033203125,0.015625,-0.017578125,0.0,0.0,0.0
25427933,20149,0,1.009765625,-0.033203125,0.0234375,-0.009765625,0.0,0.0,0.0
25429183,20150,0,1.001953125,-0.03515625,0.021484375,-0.013671875,0.0,0.0,0.0
25430434,20151,0,1.001953125,-0.033203125,0.021484375,-0.01171875,0.0,0.0,0.0
25431685,20152,0,1.013671875,-0.037109375,0.017578125,-0.01953125,0.0,0.0,0.0
25432936,20153,0,1.001953125,-0.03515625,0.01953125,-0.015625,0.0,0.0,0.0
25434186,20154,0,1.0078125,-0.03125,0.015625,-0.015625,0.0,0.0,0.0
25435437,20155,0,0.998046875,-0.03515625,0.021484375,-0.013671875,0.0,0.0,0.0
25436687,20156,0,1.01171875,-0.029296875,0.025390625,-0.00390625,0.0,0.0,0.0
25437937,20157,0,1.001953125,-0.03125,0.0234375,-0.0078125,0.0,0.0,0.0
25439188,20158,0,1.005859375,-0.03515625,0.021484375,-0.013671875,0.0,0.0,0.0
25440440,20159,0,1.005859375,-0.03125,0.01953125,-0.01171875,0.0,0.0,0.0
25441690,20160,0,1.00390625,-0.03125,0.01953125,-0.01171875,0.0,0.0,0.0
25442942,20161,0,1.0078125,-0.03125,0.015625,-0.015625,0.0,0.0,0.0
25444193,20162,0,1.0078125,-0.03125,0.021484375,-0.009765625,0.0,0.0,0.0
25445445,20163,0,1.005859375,-0.03125,0.021484375,-0.009765625,0.0,0.0,0.0
25446695,20164,0,1.001953125,-0.033203125,0.0234375,-0.009765625,0.0,0.0,0.0
25447947,20165,0,1.0078125,-0.033203125,0.01953125,-0.013671875,0.0,0.0,0.0
25449198,20166,0,1.001953125,-0.033203125,0.013671875,-0.01953125,0.0,0.0,0.0
25450450,20167,0,1.001953125,-0.033203125,0.013671875,-0.01953125,0.0,0.0,0.0
25451700,20168,0,1.001953125,-0.03125,0.013671875,-0.017578125,0.0,0.0,0.0
25452952,20169,0,1.005859375,-0.029296875,0.017578125,-0.01171875,0.0,0.0,0.0
25454203,20170,0,1.00390625,-0.029296875,0.01953125,-0.009765625,0.0,0.0,0.0
25455454,20171,0,1.005859375,-0.029296875,0.025390625,-0.00390625,0.0,0.0,0.0
25456705,20172,0,1.015625,-0.03125,0.013671875,-0.017578125,0.0,0.0,0.0
25457957,20173,0,1.001953125,-0.03125,0.01953125,-0.01171875,0.0,0.0,0.0
25459207,20174,0,1.005859375,-0.033203125,0.015625,-0.017578125,0.0,0.0,0.0
25460459,20175,0,0.998046875,-0.03125,0.01953125,-0.01171875,0.0,0.0,0.0
25461709,20176,0,1.009765625,-0.029296875,0.01953125,-0.009765625,0.0,0.0,0.0
25462959,20177,0,1.0078125,-0.02734375,0.025390625,-0.001953125,0.0,0.0,0.0
25464209,20178,0,1.001953125,-0.02734375,0.021484375,-0.005859375,0.0,0.0,0.0
25465459,20179,0,0.994140625,-0.029296875,0.021484375,-0.0078125,0.0,0.0,0.0
25466711,20180,0,1.0078125,-0.03125,0.01953125,-0.01171875,0.0,0.0,0.0
25467961,20181,0,1.001953125,-0.03125,0.0234375,-0.0078125,0.0,0.0,0.0
25469213,20182,0,1.001953125,-0.03125,0.01953125,-0.01171875,0.0,0.0,0.0
25470464,20183,0,0.99609375,-0.029296875,0.015625,-0.013671875,0.0,0.0,0.0
25471715,20184,0,1.001953125,-0.029296875,0.01953125,-0.009765625,0.0,0.0,0.0
25472966,20185,0,0.99609375,-0.03125,0.017578125,-0.013671875,0.0,0.0,0.0
25474216,20186,0,1.00390625,-0.03125,0.017578125,-0.013671875,0.0,0.0,0.0
25475467,20187,0,1.009765625,-0.03125,0.015625,-0.015625,0.0,0.0,0.0
25476718,20188,0,1.001953125,-0.033203125,0.015625,-0.017578125,0.0,0.0,0.0
25477968,20189,0,0.998046875,-0.033203125,0.021484375,-0.01171875,0.0,0.0,0.0
25479219,20190,0,1.0078125,-0.033203125,0.0234375,-0.009765625,0.0,0.0,0.0
25480470,20191,0,0.99609375,-0.03125,0.01953125,-0.01171875,0.0,0.0,0.0
25481721,20192,0,1.00390625,-0.033203125,0.01171875,-0.021484375,0.0,0.0,0.0
25482971,20193,0,1.00390625,-0.025390625,0.017578125,-0.0078125,0.0,0.0,0.0
25484223,20194,0,1.015625,-0.037109375,0.005859375,-0.03125,0.0,0.0,0.0
25485473,20195,0,1.00390625,-0.025390625,0.017578125,-0.0078125,0.0,0.0,0.0
25486723,20196,0,1.013671875,-0.025390625,0.013671875,-0.01171875,0.0,0.0,0.0
25487975,20197,0,1.0,-0.03515625,0.015625,-0.01953125,0.0,0.0,0.0
25489226,20198,0,1.00390625,-0.029296875,0.01171875,-0.017578125,0.0,0.0,0.0
25490476,20199,0,1.005859375,-0.03125,0.013671875,-0.017578125,0.0,0.0,0.0
25491728,20200,0,0.998046875,-0.033203125,0.01171875,-0.021484375,0.0,0.0,0.0
25492979,20201,0,1.005859375,-0.03125,0.01171875,-0.01953125,0.0,0.0,0.0
25494229,20202,0,1.00390625,-0.033203125,0.021484375,-0.01171875,0.0,0.0,0.0
25495481,20203,0,1.0,-0.029296875,0.0234375,-0.005859375,0.0,0.0,0.0
25496731,20204,0,1.0078125,-0.03125,0.017578125,-0.013671875,0.0,0.0,0.0
25497981,20205,0,1.005859375,-0.03125,0.017578125,-0.013671875,0.0,0.0,0.0
25499232,20206,0,1.001953125,-0.033203125,0.01953125,-0.013671875,0.0,0.0,0.0
25500483,20207,0,1.001953125,-0.033203125,0.01953125,-0.013671875,0.0,0.0,0.0
25501734,20208,0,1.001953125,-0.033203125,0.013671875,-0.01953125,0.0,0.0,0.0
25502986,20209,0,1.00390625,-0.03515625,0.01953125,-0.015625,0.0,0.0,0.0
25504236,20210,0,1.005859375,-0.03125,0.021484375,-0.009765625,0.0,0.0,0.0
25505486,20211,0,1.005859375,-0.02734375,0.017578125,-0.009765625,0.0,0.0,0.0
25506737,20212,0,1.00390625,-0.033203125,0.01953125,-0.013671875,0.0,0.0,0.0
25507987,20213,0,1.001953125,-0.029296875,0.021484375,-0.0078125,0.0,0.0,0.0
25509238,20214,0,1.0,-0.033203125,0.017578125,-0.015625,0.0,0.0,0.0
25510489,20215,0,1.0078125,-0.02734375,0.015625,-0.01171875,0.0,0.0,0.0
25511740,20216,0,0.998046875,-0.0234375,0.021484375,-0.001953125,0.0,0.0,0.0
25512991,20217,0,0.998046875,-0.029296875,0.01953125,-0.009765625,0.0,0.0,0.0
25514241,20218,0,1.001953125,-0.029296875,0.01953125,-0.009765625,0.0,0.0,0.0
25515492,20219,0,1.009765625,-0.029296875,0.017578125,-0.01171875,0.0,0.0,0.0
25516744,20220,0,0.998046875,-0.02734375,0.01953125,-0.0078125,0.0,0.0,0.0
25517994,20221,0,1.01171875,-0.03125,0.01953125,-0.01171875,0.0,0.0,0.0
25519245,20222,0,1.009765625,-0.029296875,0.021484375,-0.0078125,0.0,0.0,0.0
25520496,20223,0,1.005859375,-0.029296875,0.01171875,-0.017578125,0.0,0.0,0.0
25521747,20224,0,1.001953125,-0.03515625,0.015625,-0.01953125,0.0,0.0,0.0
25522998,20225,0,1.001953125,-0.033203125,0.021484375,-0.01171875,0.0,0.0,0.0
25524249,20226,0,1.005859375,-0.029296875,0.021484375,-0.0078125,0.0,0.0,0.0
25525499,20227,0,1.0078125,-0.029296875,0.017578125,-0.01171875,0.0,0.0,0.0
25526751,20228,0,0.998046875,-0.025390625,0.0234375,-0.001953125,0.0,0.0,0.0
25528002,20229,0,1.0,-0.03125,0.021484375,-0.009765625,0.0,0.0,0.0
25529253,20230,0,1.00390625,-0.02734375,0.01953125,-0.0078125,0.0,0.0,0.0
25530503,20231,0,1.009765625,-0.03515625,0.0234375,-0.01171875,0.0,0.0,0.0
25531755,20232,0,1.0078125,-0.033203125,0.021484375,-0.01171875,0.0,0.0,0.0
25533005,20233,0,1.00390625,-0.03125,0.01953125,-0.01171875,0.0,0.0,0.0
25534256,20234,0,1.009765625,-0.033203125,0.015625,-0.017578125,0.0,0.0,0.0
25535506,20235,0,1.005859375,-0.025390625,0.01953125,-0.005859375,0.0,0.0,0.0
25536757,20236,0,1.0078125,-0.029296875,0.021484375,-0.0078125,0.0,0.0,0.0
25538008,20237,0,1.0,-0.02734375,0.025390625,-0.001953125,0.0,0.0,0.0
25539258,20238,0,0.998046875,-0.029296875,0.013671875,-0.015625,0.0,0.0,0.0
25540508,20239,0,1.01171875,-0.029296875,0.021484375,-0.0078125,0.0,0.0,0.0
25541759,20240,0,0.99609375,-0.03125,0.01953125,-0.01171875,0.0,0.0,0.0
25543009,20241,0,1.005859375,-0.033203125,0.013671875,-0.01953125,0.0,0.0,0.0
25544259,20242,0,1.017578125,-0.03125,0.01953125,-0.01171875,0.0,0.0,0.0
25545510,20243,0,1.0,-0.03125,0.015625,-0.015625,0.0,0.0,0.0
25546762,20244,0,0.99609375,-0.033203125,0.021484375,-0.01171875,0.0,0.0,0.0
25548012,20245,0,0.998046875,-0.03515625,0.01953125,-0.015625,0.0,0.0,0.0
25549271,20246,0,1.001953125,-0.03125,0.017578125,-0.013671875,0.0,0.0,0.0
25550521,20247,0,1.00390625,-0.033203125,0.017578125,-0.015625,0.0,0.0,0.0
25551773,20248,0,1.0,-0.02734375,0.01953125,-0.0078125,0.0,0.0,0.0
25553023,20249,0,1.005859375,-0.03125,0.021484375,-0.009765625,0.0,0.0,0.0
25554274,20250,0,1.005859375,-0.029296875,0.017578125,-0.01171875,0.0,0.0,0.0
25555525,20251,0,1.001953125,-0.03125,0.021484375,-0.009765625,0.0,0.0,0.0
25556776,20252,0,0.998046875,-0.029296875,0.017578125,-0.01171875,0.0,0.0,0.0
25558026,20253,0,1.00390625,-0.029296875,0.0234375,-0.005859375,0.0,0.0,0.0
25559276,20254,0,0.998046875,-0.03125,0.021484375,-0.009765625,0.0,0.0,0.0
25560527,20255,0,0.99609375,-0.033203125,0.01953125,-0.013671875,0.0,0.0,0.0
25561778,20256,0,1.0078125,-0.033203125,0.01953125,-0.013671875,0.0,0.0,0.0
25563029,20257,0,1.0078125,-0.03125,0.01953125,-0.01171875,0.0,0.0,0.0
25564280,20258,0,1.0078125,-0.029296875,0.017578125,-0.01171875,0.0,0.0,0.0
25565531,20259,0,1.009765625,-0.033203125,0.0078125,-0.025390625,0.0,0.0,0.0
25566783,20260,0,1.001953125,-0.03125,0.013671875,-0.017578125,0.0,0.0,0.0
25568034,20261,0,0.998046875,-0.033203125,0.015625,-0.017578125,0.0,0.0,0.0
25569286,20262,0,1.00390625,-0.03125,0.01953125,-0.01171875,0.0,0.0,0.0
25570537,20263,0,0.99609375,-0.03515625,0.017578125,-0.017578125,0.0,0.0,0.0
25571789,20264,0,1.005859375,-0.029296875,0.0234375,-0.005859375,0.0,0.0,0.0
25573039,20265,0,1.0078125,-0.03125,0.013671875,-0.017578125,0.0,0.0,0.0
25574289,20266,0,1.005859375,-0.03125,0.01953125,-0.01171875,0.0,0.0,0.0
25575541,20267,0,1.005859375,-0.03125,0.021484375,-0.009765625,0.0,0.0,0.0
25576792,20268,0,1.001953125,-0.03125,0.021484375,-0.009765625,0.0,0.0,0.0
25578044,20269,0,1.00390625,-0.03515625,0.021484375,-0.013671875,0.0,0.0,0.0
25579294,20270,0,0.998046875,-0.033203125,0.021484375,-0.01171875,0.0,0.0,0.0
25580544,20271,0,1.00390625,-0.03125,0.015625,-0.015625,0.0,0.0,0.0
25581795,20272,0,1.00390625,-0.03125,0.021484375,-0.009765625,0.0,0.0,0.0
25583045,20273,0,1.00390625,-0.033203125,0.01953125,-0.013671875,0.0,0.0,0.0
25584295,20274,0,0.998046875,-0.033203125,0.01953125,-0.013671875,0.0,0.0,0.0
25585546,20275,0,1.001953125,-0.02734375,0.017578125,-0.009765625,0.0,0.0,0.0
25586797,20276,0,1.005859375,-0.03125,0.015625,-0.015625,0.0,0.0,0.0
25588048,20277,0,1.009765625,-0.03125,0.021484375,-0.009765625,0.0,0.0,0.0
25589299,20278,0,1.0,-0.025390625,0.017578125,-0.0078125,0.0,0.0,0.0
25590550,20279,0,0.99609375,-0.03125,0.021484375,-0.009765625,0.0,0.0,0.0
25591800,20280,0,1.001953125,-0.03125,0.01953125,-0.01171875,0.0,0.0,0.0
25593052,20281,0,1.005859375,-0.03515625,0.013671875,-0.021484375,0.0,0.0,0.0
25594303,20282,0,1.0078125,-0.02734375,0.015625,-0.01171875,0.0,0.0,0.0
25595554,20283,0,1.005859375,-0.029296875,0.017578125,-0.01171875,0.0,0.0,0.0
25596805,20284,0,0.99609375,-0.029296875,0.015625,-0.013671875,0.0,0.0,0.0
25598057,20285,0,1.001953125,-0.033203125,0.015625,-0.017578125,0.0,0.0,0.0
25599308,20286,0,1.01953125,-0.03125,0.013671875,-0.017578125,0.0,0.0,0.0
25600560,20287,0,0.998046875,-0.025390625,0.01953125,-0.005859375,0.0,0.0,0.0
25601811,20288,0,1.00390625,-0.03125,0.01953125,-0.01171875,0.0,0.0,0.0
25603063,20289,0,1.0,-0.03125,0.013671875,-0.017578125,0.0,0.0,0.0
25604314,20290,0,1.001953125,-0.03125,0.021484375,-0.009765625,0.0,0.0,0.0
25605565,20291,0,0.998046875,-0.033203125,0.017578125,-0.015625,0.0,0.0,0.0
25606816,20292,0,1.00390625,-0.029296875,0.021484375,-0.0078125,0.0,0.0,0.0
25608066,20293,0,1.0078125,-0.029296875,0.017578125,-0.01171875,0.0,0.0,0.0
25609318,20294,0,1.005859375,-0.037109375,0.01953125,-0.017578125,0.0,0.0,0.0
25610569,20295,0,1.001953125,-0.03125,0.0234375,-0.0078125,0.0,0.0,0.0
25611819,20296,0,1.0078125,-0.029296875,0.021484375,-0.0078125,0.0,0.0,0.0
25613070,20297,0,1.0078125,-0.029296875,0.015625,-0.013671875,0.0,0.0,0.0
25614321,20298,0,1.005859375,-0.03125,0.01953125,-0.01171875,0.0,0.0,0.0
25615572,20299,0,1.0,-0.033203125,0.0234375,-0.009765625,0.0,0.0,0.0
25616823,20300,0,1.005859375,-0.03125,0.017578125,-0.013671875,0.0,0.0,0.0
25618074,20301,0,1.00390625,-0.02734375,0.017578125,-0.009765625,0.0,0.0,0.0
25619325,20302,0,0.9921875,-0.029296875,0.017578125,-0.01171875,0.0,0.0,0.0
25620575,20303,0,1.001953125,-0.03515625,0.01953125,-0.015625,0.0,0.0,0.0
25621825,20304,0,0.998046875,-0.03125,0.017578125,-0.013671875,0.0,0.0,0.0
25623076,20305,0,1.001953125,-0.033203125,0.01953125,-0.013671875,0.0,0.0,0.0
25624326,20306,0,1.001953125,-0.02734375,0.015625,-0.01171875,0.0,0.0,0.0
25625577,20307,0,0.998046875,-0.03125,0.0234375,-0.0078125,0.0,0.0,0.0
25626828,20308,0,1.001953125,-0.033203125,0.013671875,-0.01953125,0.0,0.0,0.0
25628078,20309,0,1.00390625,-0.029296875,0.01953125,-0.009765625,0.0,0.0,0.0
25629329,20310,0,1.0078125,-0.033203125,0.017578125,-0.015625,0.0,0.0,0.0
25630581,20311,0,1.00390625,-0.029296875,0.017578125,-0.01171875,0.0,0.0,0.0
25631833,20312,0,1.00390625,-0.03125,0.015625,-0.015625,0.0,0.0,0.0
25633083,20313,0,1.001953125,-0.029296875,0.01953125,-0.009765625,0.0,0.0,0.0
25634333,20314,0,1.001953125,-0.029296875,0.021484375,-0.0078125,0.0,0.0,0.0
25635584,20315,0,1.00390625,-0.033203125,0.015625,-0.017578125,0.0,0.0,0.0
25636835,20316,0,1.0,-0.03125,0.013671875,-0.017578125,0.0,0.0,0.0
25638085,20317,0,0.998046875,-0.03125,0.017578125,-0.013671875,0.0,0.0,0.0
25639336,20318,0,0.998046875,-0.02734375,0.01953125,-0.0078125,0.0,0.0,0.0
25640587,20319,0,1.001953125,-0.029296875,0.017578125,-0.01171875,0.0,0.0,0.0
25641838,20320,0,1.013671875,-0.033203125,0.015625,-0.017578125,0.0,0.0,0.0
25643090,20321,0,1.0078125,-0.029296875,0.021484375,-0.0078125,0.0,0.0,0.0
25644341,20322,0,1.005859375,-0.03125,0.017578125,-0.013671875,0.0,0.0,0.0
25645592,20323,0,1.005859375,-0.029296875,0.017578125,-0.01171875,0.0,0.0,0.0
25646844,20324,0,0.9921875,-0.033203125,0.015625,-0.017578125,0.0,0.0,0.0
25648095,20325,0,1.01171875,-0.033203125,0.015625,-0.017578125,0.0,0.0,0.0
25649346,20326,0,0.99609375,-0.025390625,0.01171875,-0.013671875,0.0,0.0,0.0
25650597,20327,0,1.0078125,-0.03125,0.0078125,-0.0234375,0.0,0.0,0.0
25651849,20328,0,1.001953125,-0.03125,0.017578125,-0.013671875,0.0,0.0,0.0
25653099,20329,0,1.015625,-0.029296875,0.01953125,-0.009765625,0.0,0.0,0.0
25654351,20330,0,1.00390625,-0.03125,0.021484375,-0.009765625,0.0,0.0,0.0
25655602,20331,0,0.998046875,-0.03125,0.0234375,-0.0078125,0.0,0.0,0.0
25656854,20332,0,1.001953125,-0.029296875,0.01953125,-0.009765625,0.0,0.0,0.0
25658104,20333,0,1.0,-0.029296875,0.015625,-0.013671875,0.0,0.0,0.0
25659354,20334,0,1.00390625,-0.029296875,0.0234375,-0.005859375,0.0,0.0,0.0
25660605,20335,0,1.0,-0.025390625,0.01953125,-0.005859375,0.0,0.0,0.0
25661855,20336,0,1.00390625,-0.02734375,0.01953125,-0.0078125,0.0,0.0,0.0
25663107,20337,0,1.00390625,-0.033203125,0.015625,-0.017578125,0.0,0.0,0.0
25664358,20338,0,1.00390625,-0.03125,0.017578125,-0.013671875,0.0,0.0,0.0
25665609,20339,0,1.005859375,-0.03125,0.01953125,-0.01171875,0.0,0.0,0.0
25666859,20340,0,1.00390625,-0.03125,0.017578125,-0.013671875,0.0,0.0,0.0
25668111,20341,0,1.00390625,-0.03125,0.01953125,-0.01171875,0.0,0.0,0.0
25669362,20342,0,1.001953125,-0.029296875,0.021484375,-0.0078125,0.0,0.0,0.0
25670613,20343,0,0.998046875,-0.02734375,0.029296875,0.001953125,0.0,0.0,0.0
25671865,20344,0,1.001953125,-0.03125,0.015625,-0.015625,0.0,0.0,0.0
25673115,20345,0,1.00390625,-0.03125,0.01953125,-0.01171875,0.0,0.0,0.0
25674365,20346,0,1.00390625,-0.029296875,0.021484375,-0.0078125,0.0,0.0,0.0
25675617,20347,0,1.017578125,-0.033203125,0.015625,-0.017578125,0.0,0.0,0.0
25676867,20348,0,0.99609375,-0.02734375,0.017578125,-0.009765625,0.0,0.0,0.0
25678118,20349,0,1.0,-0.03515625,0.013671875,-0.021484375,0.0,0.0,0.0
25679369,20350,0,0.998046875,-0.029296875,0.013671875,-0.015625,0.0,0.0,0.0
25680620,20351,0,1.00390625,-0.03125,0.01953125,-0.01171875,0.0,0.0,0.0
25681871,20352,0,1.001953125,-0.033203125,0.017578125,-0.015625,0.0,0.0,0.0
25683123,20353,0,1.00390625,-0.03125,0.015625,-0.015625,0.0,0.0,0.0
25684374,20354,0,1.005859375,-0.03125,0.017578125,-0.013671875,0.0,0.0,0.0
25685624,20355,0,1.005859375,-0.03515625,0.01953125,-0.015625,0.0,0.0,0.0
25686875,20356,0,1.00390625,-0.033203125,0.015625,-0.017578125,0.0,0.0,0.0
25688125,20357,0,1.001953125,-0.029296875,0.021484375,-0.0078125,0.0,0.0,0.0
25689375,20358,0,1.001953125,-0.029296875,0.01953125,-0.009765625,0.0,0.0,0.0
25690626,20359,0,1.005859375,-0.03125,0.0234375,-0.0078125,0.0,0.0,0.0
25691877,20360,0,1.001953125,-0.029296875,0.0234375,-0.005859375,0.0,0.0,0.0
25693129,20361,0,1.005859375,-0.02734375,0.01953125,-0.0078125,0.0,0.0,0.0
25694380,20362,0,0.998046875,-0.033203125,0.0234375,-0.009765625,0.0,0.0,0.0
25695630,20363,0,1.0,-0.033203125,0.01953125,-0.013671875,0.0,0.0,0.0
25696881,20364,0,1.0,-0.033203125,0.01953125,-0.013671875,0.0,0.0,0.0
25698133,20365,0,1.0,-0.03125,0.009765625,-0.021484375,0.0,0.0,0.0
25699384,20366,0,1.001953125,-0.03515625,0.005859375,-0.029296875,0.0,0.0,0.0
25700634,20367,0,0.99609375,-0.03125,0.01953125,-0.01171875,0.0,0.0,0.0
25701886,20368,0,1.001953125,-0.029296875,0.01171875,-0.017578125,0.0,0.0,0.0
25703136,20369,0,1.001953125,-0.033203125,0.021484375,-0.01171875,0.0,0.0,0.0
25704386,20370,0,1.001953125,-0.02734375,0.013671875,-0.013671875,0.0,0.0,0.0
25705638,20371,0,1.005859375,-0.03125,0.013671875,-0.017578125,0.0,0.0,0.0
25706888,20372,0,1.001953125,-0.03515625,0.017578125,-0.017578125,0.0,0.0,0.0
25708139,20373,0,1.00390625,-0.03125,0.025390625,-0.005859375,0.0,0.0,0.0
25709391,20374,0,1.0,-0.033203125,0.021484375,-0.01171875,0.0,0.0,0.0
25710641,20375,0,1.005859375,-0.03515625,0.021484375,-0.013671875,0.0,0.0,0.0
25711892,20376,0,1.005859375,-0.03515625,0.015625,-0.01953125,0.0,0.0,0.0
25713142,20377,0,1.0078125,-0.03125,0.021484375,-0.009765625,0.0,0.0,0.0
25714393,20378,0,1.005859375,-0.029296875,0.017578125,-0.01171875,0.0,0.0,0.0
25715645,20379,0,1.01171875,-0.03125,0.01953125,-0.01171875,0.0,0.0,0.0
25716895,20380,0,1.005859375,-0.03125,0.021484375,-0.009765625,0.0,0.0,0.0
25718147,20381,0,1.0078125,-0.037109375,0.017578125,-0.01953125,0.0,0.0,0.0
25719397,20382,0,1.005859375,-0.03125,0.013671875,-0.017578125,0.0,0.0,0.0
25720649,20383,0,1.005859375,-0.029296875,0.01953125,-0.009765625,0.0,0.0,0.0
25721899,20384,0,1.005859375,-0.029296875,0.021484375,-0.0078125,0.0,0.0,0.0
25723149,20385,0,1.005859375,-0.0234375,0.017578125,-0.005859375,0.0,0.0,0.0
25724399,20386,0,1.001953125,-0.03125,0.021484375,-0.009765625,0.0,0.0,0.0
25725650,20387,0,1.009765625,-0.03125,0.01953125,-0.01171875,0.0,0.0,0.0
25726902,20388,0,1.001953125,-0.033203125,0.01953125,-0.013671875,0.0,0.0,0.0
25728153,20389,0,0.994140625,-0.02734375,0.021484375,-0.005859375,0.0,0.0,0.0
25729404,20390,0,1.009765625,-0.02734375,0.01953125,-0.0078125,0.0,0.0,0.0
25730654,20391,0,1.0078125,-0.03515625,0.01171875,-0.0234375,0.0,0.0,0.0
25731904,20392,0,1.009765625,-0.029296875,0.015625,-0.013671875,0.0,0.0,0.0
25733155,20393,0,1.001953125,-0.03515625,0.01953125,-0.015625,0.0,0.0,0.0
25734407,20394,0,1.0078125,-0.029296875,0.021484375,-0.0078125,0.0,0.0,0.0
25735657,20395,0,1.001953125,-0.029296875,0.01953125,-0.009765625,0.0,0.0,0.0
25736909,20396,0,1.00390625,-0.029296875,0.017578125,-0.01171875,0.0,0.0,0.0
25738159,20397,0,1.00390625,-0.033203125,0.0234375,-0.009765625,0.0,0.0,0.0
25739409,20398,0,1.0078125,-0.029296875,0.017578125,-0.01171875,0.0,0.0,0.0
25740661,20399,0,1.00390625,-0.03125,0.017578125,-0.013671875,0.0,0.0,0.0
25741911,20400,0,1.009765625,-0.029296875,0.015625,-0.013671875,0.0,0.0,0.0
25743161,20401,0,1.001953125,-0.03125,0.01953125,-0.01171875,0.0,0.0,0.0
25744411,20402,0,1.001953125,-0.029296875,0.017578125,-0.01171875,0.0,0.0,0.0
25745663,20403,0,1.001953125,-0.03125,0.01953125,-0.01171875,0.0,0.0,0.0
25746913,20404,0,1.0,-0.029296875,0.015625,-0.013671875,0.0,0.0,0.0
25748164,20405,0,1.0078125,-0.03125,0.021484375,-0.009765625,0.0,0.0,0.0
25749415,20406,0,1.005859375,-0.03125,0.01953125,-0.01171875,0.0,0.0,0.0
25750666,20407,0,1.0078125,-0.029296875,0.021484375,-0.0078125,0.0,0.0,0.0
25751916,20408,0,1.001953125,-0.03515625,0.01171875,-0.0234375,0.0,0.0,0.0
25753167,20409,0,1.005859375,-0.02734375,0.025390625,-0.001953125,0.0,0.0,0.0
25754417,20410,0,1.001953125,-0.029296875,0.01171875,-0.017578125,0.0,0.0,0.0
25755668,20411,0,1.00390625,-0.029296875,0.009765625,-0.01953125,0.0,0.0,0.0
25756920,20412,0,0.998046875,-0.033203125,0.01171875,-0.021484375,0.0,0.0,0.0
25758171,20413,0,1.00390625,-0.029296875,0.021484375,-0.0078125,0.0,0.0,0.0
25759421,20414,0,1.001953125,-0.029296875,0.015625,-0.013671875,0.0,0.0,0.0
25760672,20415,0,0.998046875,-0.029296875,0.0234375,-0.005859375,0.0,0.0,0.0
25761924,20416,0,1.005859375,-0.02734375,0.015625,-0.01171875,0.0,0.0,0.0
25763174,20417,0,0.998046875,-0.029296875,0.01171875,-0.017578125,0.0,0.0,0.0
25764425,20418,0,1.009765625,-0.02734375,0.017578125,-0.009765625,0.0,0.0,0.0
25765677,20419,0,0.998046875,-0.03125,0.015625,-0.015625,0.0,0.0,0.0
25766927,20420,0,1.001953125,-0.029296875,0.021484375,-0.0078125,0.0,0.0,0.0
25768177,20421,0,1.00390625,-0.02734375,0.017578125,-0.009765625,0.0,0.0,0.0
25769429,20422,0,1.005859375,-0.029296875,0.015625,-0.013671875,0.0,0.0,0.0
25770679,20423,0,1.00390625,-0.03125,0.01953125,-0.01171875,0.0,0.0,0.0
25771931,20424,0,1.001953125,-0.02734375,0.01953125,-0.0078125,0.0,0.0,0.0
25773181,20425,0,1.005859375,-0.03125,0.01953125,-0.01171875,0.0,0.0,0.0
25774431,20426,0,1.01171875,-0.03515625,0.013671875,-0.021484375,0.0,0.0,0.0
25775683,20427,0,1.0078125,-0.029296875,0.015625,-0.013671875,0.0,0.0,0.0
25776933,20428,0,1.001953125,-0.029296875,0.0234375,-0.005859375,0.0,0.0,0.0
25778183,20429,0,0.998046875,-0.025390625,0.01953125,-0.005859375,0.0,0.0,0.0
25779434,20430,0,1.01171875,-0.025390625,0.017578125,-0.0078125,0.0,0.0,0.0
25780685,20431,0,1.015625,-0.03515625,0.015625,-0.01953125,0.0,0.0,0.0
25781936,20432,0,1.0078125,-0.037109375,0.015625,-0.021484375,0.0,0.0,0.0
25783186,20433,0,1.01171875,-0.03515625,0.009765625,-0.025390625,0.0,0.0,0.0
25784437,20434,0,1.001953125,-0.033203125,0.017578125,-0.015625,0.0,0.0,0.0
25785687,20435,0,1.001953125,-0.03125,0.021484375,-0.009765625,0.0,0.0,0.0
25786937,20436,0,1.013671875,-0.033203125,0.01953125,-0.013671875,0.0,0.0,0.0
25788188,20437,0,1.001953125,-0.029296875,0.01953125,-0.009765625,0.0,0.0,0.0
25789440,20438,0,1.00390625,-0.02734375,0.01953125,-0.0078125,0.0,0.0,0.0
25790690,20439,0,1.001953125,-0.025390625,0.01953125,-0.005859375,0.0,0.0,0.0
25791942,20440,0,1.0,-0.029296875,0.013671875,-0.015625,0.0,0.0,0.0
25793193,20441,0,1.00390625,-0.033203125,0.015625,-0.017578125,0.0,0.0,0.0
25794445,20442,0,1.0078125,-0.03125,0.01953125,-0.01171875,0.0,0.0,0.0
25795695,20443,0,0.99609375,-0.02734375,0.01953125,-0.0078125,0.0,0.0,0.0
25796947,20444,0,1.00390625,-0.029296875,0.013671875,-0.015625,0.0,0.0,0.0
25798198,20445,0,1.001953125,-0.033203125,0.017578125,-0.015625,0.0,0.0,0.0
25799450,20446,0,1.00390625,-0.02734375,0.021484375,-0.005859375,0.0,0.0,0.0
25800700,20447,0,1.001953125,-0.029296875,0.013671875,-0.015625,0.0,0.0,0.0
25801952,20448,0,1.005859375,-0.029296875,0.021484375,-0.0078125,0.0,0.0,0.0
25803203,20449,0,1.001953125,-0.033203125,0.021484375,-0.01171875,0.0,0.0,0.0
25804454,20450,0,1.0,-0.02734375,0.017578125,-0.009765625,0.0,0.0,0.0
25805705,20451,0,1.005859375,-0.033203125,0.021484375,-0.01171875,0.0,0.0,0.0
25806957,20452,0,1.009765625,-0.037109375,0.017578125,-0.01953125,0.0,0.0,0.0
25808207,20453,0,1.017578125,-0.029296875,0.01953125,-0.009765625,0.0,0.0,0.0
25809459,20454,0,1.01171875,-0.03125,0.015625,-0.015625,0.0,0.0,0.0
25810709,20455,0,1.00390625,-0.03515625,0.025390625,-0.009765625,0.0,0.0,0.0
25811959,20456,0,1.0,-0.033203125,0.021484375,-0.01171875,0.0,0.0,0.0
25813209,20457,0,1.0,-0.03125,0.015625,-0.015625,0.0,0.0,0.0
25814459,20458,0,1.005859375,-0.029296875,0.017578125,-0.01171875,0.0,0.0,0.0
25815711,20459,0,1.0,-0.03515625,0.021484375,-0.013671875,0.0,0.0,0.0
25816961,20460,0,1.0078125,-0.029296875,0.01953125,-0.009765625,0.0,0.0,0.0
25818213,20461,0,1.005859375,-0.025390625,0.021484375,-0.00390625,0.0,0.0,0.0
25819464,20462,0,1.00390625,-0.029296875,0.01171875,-0.017578125,0.0,0.0,0.0
25820715,20463,0,1.0078125,-0.02734375,0.01953125,-0.0078125,0.0,0.0,0.0
25821966,20464,0,1.0,-0.02734375,0.01953125,-0.0078125,0.0,0.0,0.0
25823216,20465,0,1.00390625,-0.033203125,0.021484375,-0.01171875,0.0,0.0,0.0
25824467,20466,0,1.001953125,-0.03515625,0.01953125,-0.015625,0.0,0.0,0.0
25825718,20467,0,1.005859375,-0.02734375,0.01953125,-0.0078125,0.0,0.0,0.0
25826968,20468,0,1.0,-0.025390625,0.021484375,-0.00390625,0.0,0.0,0.0
25828219,20469,0,1.009765625,-0.03125,0.017578125,-0.013671875,0.0,0.0,0.0
25829470,20470,0,0.998046875,-0.03125,0.021484375,-0.009765625,0.0,0.0,0.0
25830721,20471,0,1.005859375,-0.03125,0.017578125,-0.013671875,0.0,0.0,0.0
25831971,20472,0,1.0,-0.02734375,0.0234375,-0.00390625,0.0,0.0,0.0
25833223,20473,0,1.001953125,-0.0390625,0.015625,-0.0234375,0.0,0.0,0.0
25834473,20474,0,1.0078125,-0.029296875,0.021484375,-0.0078125,0.0,0.0,0.0
25835723,20475,0,1.005859375,-0.03125,0.0234375,-0.0078125,0.0,0.0,0.0
25836975,20476,0,1.001953125,-0.029296875,0.021484375,-0.0078125,0.0,0.0,0.0
25838226,20477,0,1.0078125,-0.029296875,0.021484375,-0.0078125,0.0,0.0,0.0
25839476,20478,0,1.001953125,-0.029296875,0.013671875,-0.015625,0.0,0.0,0.0
25840728,20479,0,1.0,-0.02734375,0.009765625,-0.017578125,0.0,0.0,0.0
25841979,20480,0,1.0,-0.033203125,0.015625,-0.017578125,0.0,0.0,0.0
25843229,20481,0,1.005859375,-0.029296875,0.017578125,-0.01171875,0.0,0.0,0.0
25844481,20482,0,1.0,-0.03515625,0.021484375,-0.013671875,0.0,0.0,0.0
25845731,20483,0,1.0078125,-0.033203125,0.021484375,-0.01171875,0.0,0.0,0.0
25846981,20484,0,1.001953125,-0.029296875,0.013671875,-0.015625,0.0,0.0,0.0
25848232,20485,0,1.00390625,-0.029296875,0.017578125,-0.01171875,0.0,0.0,0.0
25849483,20486,0,1.005859375,-0.029296875,0.01171875,-0.017578125,0.0,0.0,0.0
25850734,20487,0,0.998046875,-0.029296875,0.017578125,-0.01171875,0.0,0.0,0.0
25851986,20488,0,1.00390625,-0.03515625,0.01953125,-0.015625,0.0,0.0,0.0
25853236,20489,0,1.00390625,-0.02734375,0.021484375,-0.005859375,0.0,0.0,0.0
25854486,20490,0,1.005859375,-0.02734375,0.01171875,-0.015625,0.0,0.0,0.0
25855737,20491,0,1.009765625,-0.033203125,0.01953125,-0.013671875,0.0,0.0,0.0
25856987,20492,0,1.005859375,-0.03125,0.021484375,-0.009765625,0.0,0.0,0.0
25858238,20493,0,1.0078125,-0.025390625,0.0234375,-0.001953125,0.0,0.0,0.0
25859489,20494,0,1.005859375,-0.03125,0.013671875,-0.017578125,0.0,0.0,0.0
25860740,20495,0,1.001953125,-0.02734375,0.021484375,-0.005859375,0.0,0.0,0.0
25861991,20496,0,1.0078125,-0.03125,0.01953125,-0.01171875,0.0,0.0,0.0
25863241,20497,0,1.0,-0.03125,0.017578125,-0.013671875,0.0,0.0,0.0
25864492,20498,0,1.00390625,-0.033203125,0.017578125,-0.015625,0.0,0.0,0.0
25865744,20499,0,1.005859375,-0.03515625,0.02734375,-0.0078125,0.0,0.0,0.0
25866994,20500,0,0.994140625,-0.03125,0.01953125,-0.01171875,0.0,0.0,0.0
25868245,20501,0,1.001953125,-0.029296875,0.021484375,-0.0078125,0.0,0.0,0.0
25869496,20502,0,1.00390625,-0.03125,0.015625,-0.015625,0.0,0.0,0.0
25870747,20503,0,1.00390625,-0.02734375,0.013671875,-0.013671875,0.0,0.0,0.0
25871998,20504,0,0.99609375,-0.03125,0.009765625,-0.021484375,0.0,0.0,0.0
25873249,20505,0,1.001953125,-0.029296875,0.015625,-0.013671875,0.0,0.0,0.0
25874499,20506,0,0.998046875,-0.033203125,0.021484375,-0.01171875,0.0,0.0,0.0
25875751,20507,0,1.00390625,-0.033203125,0.015625,-0.017578125,0.0,0.0,0.0
25877002,20508,0,1.009765625,-0.033203125,0.017578125,-0.015625,0.0,0.0,0.0
25878253,20509,0,1.0078125,-0.025390625,0.017578125,-0.0078125,0.0,0.0,0.0
25879503,20510,0,1.005859375,-0.03515625,0.015625,-0.01953125,0.0,0.0,0.0
25880755,20511,0,1.00390625,-0.025390625,0.015625,-0.009765625,0.0,0.0,0.0
25882005,20512,0,1.0078125,-0.029296875,0.017578125,-0.01171875,0.0,0.0,0.0
25883256,20513,0,1.0078125,-0.03125,0.01171875,-0.01953125,0.0,0.0,0.0
25884506,20514,0,0.998046875,-0.03125,0.01953125,-0.01171875,0.0,0.0,0.0
25885757,20515,0,1.001953125,-0.029296875,0.0234375,-0.005859375,0.0,0.0,0.0
25887008,20516,0,1.0,-0.033203125,0.009765625,-0.0234375,0.0,0.0,0.0
25888258,20517,0,1.001953125,-0.037109375,0.0078125,-0.029296875,0.0,0.0,0.0
25889508,20518,0,1.0078125,-0.03125,0.01953125,-0.01171875,0.0,0.0,0.0
25890759,20519,0,1.0,-0.03515625,0.025390625,-0.009765625,0.0,0.0,0.0
25892009,20520,0,1.005859375,-0.02734375,0.025390625,-0.001953125,0.0,0.0,0.0
25893259,20521,0,0.998046875,-0.029296875,0.01953125,-0.009765625,0.0,0.0,0.0
25894510,20522,0,1.005859375,-0.03125,0.013671875,-0.017578125,0.0,0.0,0.0
25895762,20523,0,1.0,-0.03125,0.01171875,-0.01953125,0.0,0.0,0.0
25897012,20524,0,1.0078125,-0.03125,0.01953125,-0.01171875,0.0,0.0,0.0
25898271,20525,0,1.0078125,-0.029296875,0.013671875,-0.015625,0.0,0.0,0.0
25899521,20526,0,1.001953125,-0.03515625,0.01953125,-0.015625,0.0,0.0,0.0
25900773,20527,0,1.0,-0.03125,0.01953125,-0.01171875,0.0,0.0,0.0
25902023,20528,0,1.00390625,-0.03515625,0.017578125,-0.017578125,0.0,0.0,0.0
25903274,20529,0,1.00390625,-0.03125,0.01953125,-0.01171875,0.0,0.0,0.0
25904525,20530,0,1.001953125,-0.029296875,0.01953125,-0.009765625,0.0,0.0,0.0
25905776,20531,0,1.005859375,-0.02734375,0.015625,-0.01171875,0.0,0.0,0.0
25907026,20532,0,1.001953125,-0.03125,0.017578125,-0.013671875,0.0,0.0,0.0
25908276,20533,0,1.0,-0.02734375,0.017578125,-0.009765625,0.0,0.0,0.0
25909527,20534,0,0.998046875,-0.033203125,0.01953125,-0.013671875,0.0,0.0,0.0
25910778,20535,0,1.001953125,-0.033203125,0.01953125,-0.013671875,0.0,0.0,0.0
25912029,20536,0,1.001953125,-0.02734375,0.017578125,-0.009765625,0.0,0.0,0.0
25913280,20537,0,1.00390625,-0.033203125,0.01953125,-0.013671875,0.0,0.0,0.0
25914531,20538,0,1.00390625,-0.033203125,0.017578125,-0.015625,0.0,0.0,0.0
25915783,20539,0,1.0078125,-0.029296875,0.021484375,-0.0078125,0.0,0.0,0.0
25917034,20540,0,1.013671875,-0.03125,0.015625,-0.015625,0.0,0.0,0.0
25918286,20541,0,1.005859375,-0.03515625,0.021484375,-0.013671875,0.0,0.0,0.0
25919537,20542,0,1.0078125,-0.03125,0.015625,-0.015625,0.0,0.0,0.0
25920789,20543,0,1.005859375,-0.033203125,0.021484375,-0.01171875,0.0,0.0,0.0
25922039,20544,0,1.001953125,-0.02734375,0.015625,-0.01171875,0.0,0.0,0.0
25923289,20545,0,1.005859375,-0.033203125,0.01953125,-0.013671875,0.0,0.0,0.0
25924541,20546,0,1.00390625,-0.033203125,0.017578125,-0.015625,0.0,0.0,0.0
25925792,20547,0,1.009765625,-0.029296875,0.015625,-0.013671875,0.0,0.0,0.0
25927044,20548,0,1.0078125,-0.033203125,0.01953125,-0.013671875,0.0,0.0,0.0
25928294,20549,0,1.001953125,-0.029296875,0.017578125,-0.01171875,0.0,0.0,0.0
25929544,20550,0,1.005859375,-0.033203125,0.017578125,-0.015625,0.0,0.0,0.0
25930795,20551,0,1.005859375,-0.02734375,0.0234375,-0.00390625,0.0,0.0,0.0
25932045,20552,0,1.0,-0.03125,0.017578125,-0.013671875,0.0,0.0,0.0
25933295,20553,0,1.001953125,-0.025390625,0.013671875,-0.01171875,0.0,0.0,0.0
25934546,20554,0,0.998046875,-0.03515625,0.01953125,-0.015625,0.0,0.0,0.0
25935797,20555,0,1.001953125,-0.029296875,0.021484375,-0.0078125,0.0,0.0,0.0
25937048,20556,0,1.005859375,-0.029296875,0.017578125,-0.01171875,0.0,0.0,0.0
25938299,20557,0,1.0078125,-0.03515625,0.0234375,-0.01171875,0.0,0.0,0.0
25939550,20558,0,1.005859375,-0.03125,0.01171875,-0.01953125,0.0,0.0,0.0
25940800,20559,0,1.009765625,-0.029296875,0.01953125,-0.009765625,0.0,0.0,0.0
25942052,20560,0,1.005859375,-0.029296875,0.015625,-0.013671875,0.0,0.0,0.0
25943303,20561,0,1.0078125,-0.03125,0.017578125,-0.013671875,0.0,0.0,0.0
25944554,20562,0,1.00390625,-0.029296875,0.021484375,-0.0078125,0.0,0.0,0.0
25945805,20563,0,1.0,-0.033203125,0.029296875,-0.00390625,0.0,0.0,0.0
25947057,20564,0,1.0,-0.03515625,0.017578125,-0.017578125,0.0,0.0,0.0
25948308,20565,0,1.005859375,-0.03125,0.017578125,-0.013671875,0.0,0.0,0.0
25949560,20566,0,1.0,-0.03515625,0.015625,-0.01953125,0.0,0.0,0.0
25950811,20567,0,1.005859375,-0.029296875,0.01953125,-0.009765625,0.0,0.0,0.0
25952063,20568,0,1.001953125,-0.03125,0.01953125,-0.01171875,0.0,0.0,0.0
25953314,20569,0,1.0078125,-0.029296875,0.021484375,-0.0078125,0.0,0.0,0.0
25954565,20570,0,1.0078125,-0.029296875,0.017578125,-0.01171875,0.0,0.0,0.0
25955816,20571,0,1.0078125,-0.02734375,0.01953125,-0.0078125,0.0,0.0,0.0
25957066,20572,0,1.001953125,-0.033203125,0.025390625,-0.0078125,0.0,0.0,0.0
25958318,20573,0,1.00390625,-0.029296875,0.01953125,-0.009765625,0.0,0.0,0.0
25959569,20574,0,1.009765625,-0.03125,0.0234375,-0.0078125,0.0,0.0,0.0
25960819,20575,0,1.005859375,-0.03125,0.01953125,-0.01171875,0.0,0.0,0.0
25962070,20576,0,1.0078125,-0.03125,0.021484375,-0.009765625,0.0,0.0,0.0
25963321,20577,0,1.001953125,-0.029296875,0.021484375,-0.0078125,0.0,0.0,0.0
25964572,20578,0,1.001953125,-0.037109375,0.017578125,-0.01953125,0.0,0.0,0.0
25965823,20579,0,0.998046875,-0.02734375,0.01953125,-0.0078125,0.0,0.0,0.0
25967074,20580,0,0.994140625,-0.03125,0.017578125,-0.013671875,0.0,0.0,0.0
25968325,20581,0,0.994140625,-0.03125,0.01953125,-0.01171875,0.0,0.0,0.0
25969575,20582,0,1.0078125,-0.03125,0.009765625,-0.021484375,0.0,0.0,0.0
25970825,20583,0,1.015625,-0.029296875,0.025390625,-0.00390625,0.0,0.0,0.0
25972076,20584,0,1.0078125,-0.03125,0.015625,-0.015625,0.0,0.0,0.0
25973326,20585,0,1.0078125,-0.03125,0.01953125,-0.01171875,0.0,0.0,0.0
25974577,20586,0,1.005859375,-0.029296875,0.015625,-0.013671875,0.0,0.0,0.0
25975828,20587,0,1.001953125,-0.029296875,0.021484375,-0.0078125,0.0,0.0,0.0
25977078,20588,0,1.00390625,-0.03125,0.013671875,-0.017578125,0.0,0.0,0.0
25978329,20589,0,1.001953125,-0.037109375,0.015625,-0.021484375,0.0,0.0,0.0
25979581,20590,0,1.0,-0.033203125,0.017578125,-0.015625,0.0,0.0,0.0
25980833,20591,0,1.00390625,-0.03125,0.0234375,-0.0078125,0.0,0.0,0.0
25982083,20592,0,1.00390625,-0.029296875,0.01953125,-0.009765625,0.0,0.0,0.0
25983333,20593,0,1.0078125,-0.03125,0.015625,-0.015625,0.0,0.0,0.0
25984584,20594,0,1.001953125,-0.02734375,0.015625,-0.01171875,0.0,0.0,0.0
25985835,20595,0,1.0078125,-0.03515625,0.017578125,-0.017578125,0.0,0.0,0.0
25987085,20596,0,0.998046875,-0.033203125,0.017578125,-0.015625,0.0,0.0,0.0
25988336,20597,0,1.00390625,-0.03125,0.021484375,-0.009765625,0.0,0.0,0.0
25989587,20598,0,1.001953125,-0.033203125,0.021484375,-0.01171875,0.0,0.0,0.0
25990838,20599,0,1.00390625,-0.033203125,0.01171875,-0.021484375,0.0,0.0,0.0
25992090,20600,0,1.00390625,-0.033203125,0.01953125,-0.013671875,0.0,0.0,0.0
25993341,20601,0,1.009765625,-0.037109375,0.009765625,-0.02734375,0.0,0.0,0.0
25994592,20602,0,1.005859375,-0.03515625,0.017578125,-0.017578125,0.0,0.0,0.0
25995844,20603,0,1.00390625,-0.03515625,0.013671875,-0.021484375,0.0,0.0,0.0
25997095,20604,0,1.009765625,-0.03515625,0.025390625,-0.009765625,0.0,0.0,0.0
25998346,20605,0,0.998046875,-0.033203125,0.01953125,-0.013671875,0.0,0.0,0.0
25999597,20606,0,0.998046875,-0.03515625,0.0078125,-0.02734375,0.0,0.0,0.0
26000849,20607,0,1.001953125,-0.02734375,0.017578125,-0.009765625,0.0,0.0,0.0
26002099,20608,0,1.00390625,-0.03125,0.017578125,-0.013671875,0.0,0.0,0.0
26003351,20609,0,1.0,-0.03125,0.017578125,-0.013671875,0.0,0.0,0.0
26004602,20610,0,1.0078125,-0.033203125,0.017578125,-0.015625,0.0,0.0,0.0
26005854,20611,0,0.998046875,-0.033203125,0.01953125,-0.013671875,0.0,0.0,0.0
26007104,20612,0,1.0078125,-0.029296875,0.021484375,-0.0078125,0.0,0.0,0.0
26008354,20613,0,1.005859375,-0.02734375,0.025390625,-0.001953125,0.0,0.0,0.0
26009605,20614,0,1.001953125,-0.02734375,0.017578125,-0.009765625,0.0,0.0,0.0
26010855,20615,0,1.001953125,-0.029296875,0.017578125,-0.01171875,0.0,0.0,0.0
26012107,20616,0,1.005859375,-0.033203125,0.021484375,-0.01171875,0.0,0.0,0.0
26013358,20617,0,1.005859375,-0.03125,0.021484375,-0.009765625,0.0,0.0,0.0
26014609,20618,0,1.0078125,-0.029296875,0.01953125,-0.009765625,0.0,0.0,0.0
26015859,20619,0,1.001953125,-0.02734375,0.021484375,-0.005859375,0.0,0.0,0.0
26017111,20620,0,1.0078125,-0.029296875,0.01953125,-0.009765625,0.0,0.0,0.0
26018362,20621,0,1.005859375,-0.033203125,0.01953125,-0.013671875,0.0,0.0,0.0
26019613,20622,0,1.005859375,-0.029296875,0.017578125,-0.01171875,0.0,0.0,0.0
26020865,20623,0,1.0,-0.033203125,0.009765625,-0.0234375,0.0,0.0,0.0
26022115,20624,0,1.001953125,-0.029296875,0.0078125,-0.021484375,0.0,0.0,0.0
26023365,20625,0,0.99609375,-0.029296875,0.013671875,-0.015625,0.0,0.0,0.0
26024617,20626,0,1.001953125,-0.029296875,0.009765625,-0.01953125,0.0,0.0,0.0
26025867,20627,0,1.0078125,-0.03125,0.01953125,-0.01171875,0.0,0.0,0.0
26027118,20628,0,1.001953125,-0.029296875,0.0078125,-0.021484375,0.0,0.0,0.0
26028369,20629,0,1.0078125,-0.029296875,0.015625,-0.013671875,0.0,0.0,0.0
26029620,20630,0,1.0078125,-0.02734375,0.01953125,-0.0078125,0.0,0.0,0.0
26030871,20631,0,1.0078125,-0.0234375,0.01953125,-0.00390625,0.0,0.0,0.0
26032123,20632,0,1.005859375,-0.03125,0.0234375,-0.0078125,0.0,0.0,0.0
26033374,20633,0,1.00390625,-0.029296875,0.017578125,-0.01171875,0.0,0.0,0.0
26034624,20634,0,0.998046875,-0.025390625,0.017578125,-0.0078125,0.0,0.0,0.0
26035875,20635,0,1.0,-0.033203125,0.017578125,-0.015625,0.0,0.0,0.0
26037125,20636,0,0.998046875,-0.03125,0.013671875,-0.017578125,0.0,0.0,0.0
26038375,20637,0,1.00390625,-0.029296875,0.017578125,-0.01171875,0.0,0.0,0.0
26039626,20638,0,1.001953125,-0.02734375,0.01953125,-0.0078125,0.0,0.0,0.0
26040877,20639,0,1.001953125,-0.03515625,0.013671875,-0.021484375,0.0,0.0,0.0
26042129,20640,0,1.001953125,-0.03125,0.015625,-0.015625,0.0,0.0,0.0
26043380,20641,0,1.0078125,-0.029296875,0.015625,-0.013671875,0.0,0.0,0.0
26044630,20642,0,1.005859375,-0.03125,0.017578125,-0.013671875,0.0,0.0,0.0
26045881,20643,0,1.0,-0.033203125,0.01953125,-0.013671875,0.0,0.0,0.0
26047133,20644,0,1.01171875,-0.033203125,0.02734375,-0.005859375,0.0,0.0,0.0
26048384,20645,0,0.998046875,-0.03515625,0.01953125,-0.015625,0.0,0.0,0.0
26049634,20646,0,1.00390625,-0.03125,0.017578125,-0.013671875,0.0,0.0,0.0
26050886,20647,0,1.005859375,-0.037109375,0.017578125,-0.01953125,0.0,0.0,0.0
26052136,20648,0,1.005859375,-0.037109375,0.01953125,-0.017578125,0.0,0.0,0.0
26053386,20649,0,1.0,-0.037109375,0.017578125,-0.01953125,0.0,0.0,0.0
26054638,20650,0,1.0078125,-0.033203125,0.01953125,-0.013671875,0.0,0.0,0.0
26055888,20651,0,1.001953125,-0.03515625,0.01953125,-0.015625,0.0,0.0,0.0
26057139,20652,0,1.001953125,-0.041015625,0.01953125,-0.021484375,0.0,0.0,0.0
26058391,20653,0,1.009765625,-0.0390625,0.01171875,-0.02734375,0.0,0.0,0.0
26059641,20654,0,1.001953125,-0.04296875,0.0078125,-0.03515625,0.0,0.0,0.0
26060892,20655,0,0.998046875,-0.04296875,0.013671875,-0.029296875,0.0,0.0,0.0
26062142,20656,0,0.984375,-0.1484375,-0.056640625,-0.205078125,0.0,0.0,0.0
26063393,20657,0,0.970703125,-0.23046875,-0.12109375,-0.3515625,0.0,0.0,0.0
26064645,20658,0,0.99609375,0.05078125,0.0859375,0.13671875,0.0,0.0,0.0
26065895,20659,0,1.02734375,-0.193359375,-0.05859375,-0.251953125,0.0,0.0,0.0
26067147,20660,0,0.90625,-0.568359375,-0.330078125,-0.8984375,0.0,0.0,0.0
26068397,20661,0,1.04296875,0.251953125,0.1640625,0.416015625,0.0,0.0,0.0
26069649,20662,0,1.095703125,0.447265625,0.291015625,0.73828125,0.0,0.0,0.0
26070899,20663,0,1.04296875,0.14453125,0.169921875,0.314453125,0.0,0.0,0.0
26072149,20664,0,0.955078125,-0.146484375,-0.052734375,-0.19921875,0.0,0.0,0.0
26073399,20665,0,0.978515625,-0.1640625,-0.076171875,-0.240234375,0.0,0.0,0.0
26074650,20666,0,1.00390625,-0.0703125,-0.017578125,-0.087890625,0.0,0.0,0.0
26075902,20667,0,1.0078125,0.015625,0.04296875,0.05859375,0.0,0.0,0.0
26077153,20668,0,1.0,0.056640625,0.080078125,0.13671875,0.0,0.0,0.0
26078404,20669,0,1.0390625,0.009765625,0.029296875,0.0390625,0.0,0.0,0.0
26079654,20670,0,0.990234375,-0.078125,-0.01171875,-0.08984375,0.0,0.0,0.0
26080904,20671,0,1.009765625,-0.025390625,0.021484375,-0.00390625,0.0,0.0,0.0
26082155,20672,0,1.005859375,0.009765625,0.021484375,0.03125,0.0,0.0,0.0
26083407,20673,0,1.017578125,-0.060546875,0.009765625,-0.05078125,0.0,0.0,0.0
26084657,20674,0,0.986328125,-0.095703125,-0.001953125,-0.09765625,0.0,0.0,0.0
26085909,20675,0,0.990234375,-0.05078125,-0.009765625,-0.060546875,0.0,0.0,0.0
26087159,20676,0,1.01953125,-0.052734375,0.017578125,-0.03515625,0.0,0.0,0.0
26088409,20677,0,0.978515625,-0.0234375,0.015625,-0.0078125,0.0,0.0,0.0
26089661,20678,0,1.017578125,-0.03125,0.017578125,-0.013671875,0.0,0.0,0.0
26090911,20679,0,1.0234375,-0.005859375,0.02734375,0.021484375,0.0,0.0,0.0
26092161,20680,0,1.01171875,0.041015625,0.056640625,0.09765625,0.0,0.0,0.0
26093411,20681,0,1.0078125,0.001953125,0.041015625,0.04296875,0.0,0.0,0.0
26094663,20682,0,1.0078125,-0.044921875,0.009765625,-0.03515625,0.0,0.0,0.0
26095913,20683,0,0.990234375,-0.04296875,0.021484375,-0.021484375,0.0,0.0,0.0
26097164,20684,0,0.98828125,-0.099609375,-0.021484375,-0.12109375,0.0,0.0,0.0
26098415,20685,0,0.98828125,-0.072265625,-0.009765625,-0.08203125,0.0,0.0,0.0
26099666,20686,0,1.00390625,0.021484375,0.033203125,0.0546875,0.0,0.0,0.0
26100916,20687,0,1.01953125,0.013671875,0.060546875,0.07421875,0.0,0.0,0.0
26102167,20688,0,1.01171875,-0.005859375,0.013671875,0.0078125,0.0,0.0,0.0
26103417,20689,0,0.9921875,-0.0234375,0.015625,-0.0078125,0.0,0.0,0.0
26104668,20690,0,0.99609375,-0.03125,0.03125,0.0,0.0,0.0,0.0
26105920,20691,0,1.0234375,-0.037109375,-0.013671875,-0.05078125,0.0,0.0,0.0
26107171,20692,0,0.978515625,-0.00390625,0.03125,0.02734375,0.0,0.0,0.0
26108421,20693,0,1.01171875,0.021484375,0.03515625,0.056640625,0.0,0.0,0.0
26109672,20694,0,1.001953125,-0.072265625,-0.00390625,-0.076171875,0.0,0.0,0.0
26110924,20695,0,0.994140625,-0.09765625,-0.01171875,-0.109375,0.0,0.0,0.0
26112174,20696,0,1.0,0.0,0.021484375,0.021484375,0.0,0.0,0.0
26113425,20697,0,1.01953125,-0.025390625,0.0234375,-0.001953125,0.0,0.0,0.0
26114677,20698,0,0.99609375,0.0078125,0.033203125,0.041015625,0.0,0.0,0.0
26115927,20699,0,1.01171875,-0.1171875,-0.01171875,-0.12890625,0.0,0.0,0.0
26117177,20700,0,0.998046875,-0.064453125,-0.01171875,-0.076171875,0.0,0.0,0.0
26118429,20701,0,1.005859375,-0.060546875,0.001953125,-0.05859375,0.0,0.0,0.0
26119679,20702,0,1.00390625,0.0,0.033203125,0.033203125,0.0,0.0,0.0
26120931,20703,0,1.029296875,0.029296875,0.037109375,0.06640625,0.0,0.0,0.0
26122181,20704,0,1.009765625,0.033203125,0.0546875,0.087890625,0.0,0.0,0.0
26123431,20705,0,1.01953125,-0.0234375,0.021484375,-0.001953125,0.0,0.0,0.0
26124683,20706,0,1.0,-0.046875,0.005859375,-0.041015625,0.0,0.0,0.0
26125933,20707,0,1.0,-0.10546875,-0.025390625,-0.130859375,0.0,0.0,0.0
26127183,20708,0,0.990234375,-0.12109375,-0.033203125,-0.154296875,0.0,0.0,0.0
26128434,20709,0,0.98828125,-0.04296875,-0.009765625,-0.052734375,0.0,0.0,0.0
26129685,20710,0,1.03125,0.025390625,0.04296875,0.068359375,0.0,0.0,0.0
26130936,20711,0,1.015625,0.01171875,0.0390625,0.05078125,0.0,0.0,0.0
26132186,20712,0,1.013671875,-0.0390625,0.021484375,-0.017578125,0.0,0.0,0.0
26133437,20713,0,0.9921875,-0.068359375,-0.009765625,-0.078125,0.0,0.0,0.0
26134687,20714,0,1.00390625,-0.08203125,-0.01953125,-0.1015625,0.0,0.0,0.0
26135937,20715,0,0.986328125,-0.126953125,-0.029296875,-0.15625,0.0,0.0,0.0
26137188,20716,0,0.982421875,-0.076171875,-0.01953125,-0.095703125,0.0,0.0,0.0
26138440,20717,0,1.01953125,-0.076171875,0.001953125,-0.07421875,0.0,0.0,0.0
26139690,20718,0,1.0078125,-0.052734375,0.037109375,-0.015625,0.0,0.0,0.0
26140942,20719,0,1.001953125,-0.09375,-0.015625,-0.109375,0.0,0.0,0.0
26142193,20720,0,0.984375,-0.10546875,-0.025390625,-0.130859375,0.0,0.0,0.0
26143445,20721,0,0.982421875,-0.095703125,-0.021484375,-0.1171875,0.0,0.0,0.0
26144695,20722,0,0.9921875,-0.080078125,-0.009765625,-0.08984375,0.0,0.0,0.0
26145947,20723,0,0.98828125,-0.0703125,-0.001953125,-0.072265625,0.0,0.0,0.0
26147198,20724,0,1.005859375,0.001953125,0.02734375,0.029296875,0.0,0.0,0.0
26148450,20725,0,1.01953125,-0.037109375,-0.009765625,-0.046875,0.0,0.0,0.0
26149700,20726,0,1.0078125,-0.01953125,0.03125,0.01171875,0.0,0.0,0.0
26150952,20727,0,1.0234375,0.001953125,0.03125,0.033203125,0.0,0.0,0.0
26152203,20728,0,1.005859375,0.00390625,0.0390625,0.04296875,0.0,0.0,0.0
26153454,20729,0,1.033203125,-0.02734375,0.005859375,-0.021484375,0.0,0.0,0.0
26154705,20730,0,1.046875,-0.13671875,0.025390625,-0.111328125,0.0,0.0,0.0
26155957,20731,0,0.998046875,-0.28515625,-0.08203125,-0.3671875,0.0,0.0,0.0
26157207,20732,0,1.005859375,-0.306640625,-0.091796875,-0.3984375,0.0,0.0,0.0
26158459,20733,0,1.013671875,-0.29296875,-0.09375,-0.38671875,0.0,0.0,0.0
26159709,20734,0,0.990234375,-0.232421875,-0.052734375,-0.28515625,0.0,0.0,0.0
26160959,20735,0,1.015625,-0.138671875,-0.0390625,-0.177734375,0.0,0.0,0.0
26162209,20736,0,0.994140625,-0.037109375,0.009765625,-0.02734375,0.0,0.0,0.0
26163459,20737,0,1.00390625,-0.05859375,-0.001953125,-0.060546875,0.0,0.0,0.0
26164711,20738,0,1.0078125,-0.0859375,-0.0078125,-0.09375,0.0,0.0,0.0
26165961,20739,0,0.990234375,-0.107421875,-0.025390625,-0.1328125,0.0,0.0,0.0
26167213,20740,0,1.009765625,-0.2265625,-0.07421875,-0.30078125,0.0,0.0,0.0
26168464,20741,0,1.001953125,-0.40234375,-0.130859375,-0.533203125,0.0,0.0,0.0
26169715,20742,0,1.00390625,-0.623046875,-0.20703125,-0.830078125,0.0,0.0,0.0
26170966,20743,0,0.974609375,-0.9296875,-0.326171875,-1.255859375,0.0,0.0,0.0
26172216,20744,0,0.98046875,-1.521484375,-0.556640625,-2.078125,0.0,0.0,0.0
26173467,20745,0,0.94140625,-3.28125,-1.0859375,-4.3671875,0.0,0.0,0.0
26174718,20746,0,0.9375,-4.0,-2.708984375,-6.708984375,0.0,0.0,0.0
26175968,20747,0,0.91796875,-4.0,-2.1171875,-6.1171875,0.0,0.0,0.0
26177219,20748,0,0.263671875,-4.0,-3.611328125,-7.611328125,0.0,0.0,0.0
26178470,20749,0,1.37109375,-4.0,-4.0,-8.0,0.0,0.0,0.0
26179721,20750,0,0.474609375,0.248046875,-2.53515625,-2.287109375,0.0,0.0,0.0
26180971,20751,0,1.34375,3.998046875,-0.33984375,3.658203125,0.0,0.0,0.0
26182223,20752,0,0.66015625,3.998046875,1.67578125,5.673828125,0.0,0.0,0.0
26183473,20753,0,2.15625,3.998046875,3.126953125,7.125,0.0,0.0,0.0
26184723,20754,0,1.1640625,3.998046875,3.998046875,7.99609375,0.0,0.0,0.0
26185975,20755,0,0.80078125,3.998046875,3.830078125,7.828125,0.0,0.0,0.0
26187226,20756,0,1.4453125,3.998046875,2.69140625,6.689453125,0.0,0.0,0.0
26188476,20757,0,0.966796875,3.7734375,1.447265625,5.220703125,0.0,0.0,0.0
26189728,20758,0,0.705078125,0.390625,0.07421875,0.46484375,0.0,0.0,0.0
26190979,20759,0,1.1484375,-2.58984375,-1.16796875,-3.7578125,0.0,0.0,0.0
26192229,20760,0,1.2578125,-4.0,-1.966796875,-5.966796875,0.0,0.0,0.0
26193481,20761,0,0.591796875,-4.0,-2.013671875,-6.013671875,0.0,0.0,0.0
26194731,20762,0,0.8203125,-4.0,-2.06640625,-6.06640625,0.0,0.0,0.0
26195981,20763,0,0.974609375,-4.0,-1.841796875,-5.841796875,0.0,0.0,0.0
26197232,20764,0,0.525390625,-2.826171875,-1.103515625,-3.9296875,0.0,0.0,0.0
26198483,20765,0,0.9765625,-0.818359375,-0.49609375,-1.314453125,0.0,0.0,0.0
26199734,20766,0,1.353515625,1.0390625,-0.009765625,1.029296875,0.0,0.0,0.0
26200986,20767,0,1.107421875,2.501953125,0.7265625,3.228515625,0.0,0.0,0.0
26202236,20768,0,1.044921875,3.203125,1.162109375,4.365234375,0.0,0.0,0.0
26203486,20769,0,1.29296875,3.359375,1.22265625,4.58203125,0.0,0.0,0.0
26204737,20770,0,1.017578125,2.939453125,1.203125,4.142578125,0.0,0.0,0.0
26205987,20771,0,0.728515625,2.033203125,1.01171875,3.044921875,0.0,0.0,0.0
26207238,20772,0,1.15234375,0.892578125,0.35546875,1.248046875,0.0,0.0,0.0
26208489,20773,0,1.07421875,-0.23828125,-0.087890625,-0.326171875,0.0,0.0,0.0
26209740,20774,0,0.91796875,-1.146484375,-0.369140625,-1.515625,0.0,0.0,0.0
26210991,20775,0,1.109375,-1.75390625,-0.689453125,-2.443359375,0.0,0.0,0.0
26212241,20776,0,1.07421875,-1.953125,-0.58203125,-2.53515625,0.0,0.0,0.0
26213492,20777,0,0.78515625,-1.796875,-0.447265625,-2.244140625,0.0,0.0,0.0
26214744,20778,0,0.8125,-0.7109375,-0.318359375,-1.029296875,0.0,0.0,0.0
26215994,20779,0,1.072265625,-0.013671875,0.0,-0.013671875,0.0,0.0,0.0
26217245,20780,0,1.0078125,0.572265625,0.20703125,0.779296875,0.0,0.0,0.0
26218496,20781,0,1.265625,0.9765625,0.263671875,1.240234375,0.0,0.0,0.0
26219747,20782,0,1.060546875,1.142578125,0.40625,1.548828125,0.0,0.0,0.0
26220998,20783,0,0.9375,1.078125,0.482421875,1.560546875,0.0,0.0,0.0
26222249,20784,0,1.04296875,0.8203125,0.3515625,1.171875,0.0,0.0,0.0
26223499,20785,0,0.982421875,0.4609375,0.23828125,0.69921875,0.0,0.0,0.0
26224751,20786,0,0.873046875,0.052734375,0.130859375,0.18359375,0.0,0.0,0.0
26226002,20787,0,1.041015625,-0.296875,-0.091796875,-0.388671875,0.0,0.0,0.0
26227253,20788,0,1.126953125,-0.55859375,-0.228515625,-0.787109375,0.0,0.0,0.0
26228503,20789,0,0.95703125,-0.66796875,-0.220703125,-0.888671875,0.0,0.0,0.0
26229755,20790,0,1.01171875,-0.65234375,-0.2265625,-0.87890625,0.0,0.0,0.0
26231005,20791,0,1.037109375,-0.509765625,-0.185546875,-0.6953125,0.0,0.0,0.0
26232256,20792,0,0.87890625,-0.28125,-0.04296875,-0.32421875,0.0,0.0,0.0
26233506,20793,0,0.91796875,-0.0546875,0.03515625,-0.01953125,0.0,0.0,0.0
26234757,20794,0,1.05078125,0.158203125,0.046875,0.205078125,0.0,0.0,0.0
26236008,20795,0,1.05078125,0.3203125,0.12109375,0.44140625,0.0,0.0,0.0
26237258,20796,0,1.033203125,0.40234375,0.17578125,0.578125,0.0,0.0,0.0
26238508,20797,0,1.1171875,0.388671875,0.1484375,0.537109375,0.0,0.0,0.0
26239759,20798,0,1.021484375,0.310546875,0.146484375,0.45703125,0.0,0.0,0.0
26241009,20799,0,0.896484375,0.193359375,0.169921875,0.36328125,0.0,0.0,0.0
26242259,20800,0,0.970703125,0.046875,0.076171875,0.123046875,0.0,0.0,0.0
26243510,20801,0,0.98828125,-0.083984375,0.00390625,-0.080078125,0.0,0.0,0.0
26244762,20802,0,0.98046875,-0.177734375,-0.033203125,-0.2109375,0.0,0.0,0.0
26246012,20803,0,1.0625,-0.23046875,-0.087890625,-0.318359375,0.0,0.0,0.0
26247271,20804,0,1.09375,-0.236328125,-0.10546875,-0.341796875,0.0,0.0,0.0
26248521,20805,0,0.978515625,-0.18359375,-0.041015625,-0.224609375,0.0,0.0,0.0
26249773,20806,0,0.94921875,-0.111328125,0.009765625,-0.1015625,0.0,0.0,0.0
26251023,20807,0,0.990234375,-0.03125,0.015625,-0.015625,0.0,0.0,0.0
26252274,20808,0,0.953125,0.044921875,0.0625,0.107421875,0.0,0.0,0.0
26253525,20809,0,0.984375,0.10546875,0.078125,0.18359375,0.0,0.0,0.0
26254776,20810,0,1.080078125,0.11328125,0.044921875,0.158203125,0.0,0.0,0.0
26256026,20811,0,1.056640625,0.109375,0.044921875,0.154296875,0.0,0.0,0.0
26257276,20812,0,1.017578125,0.083984375,0.064453125,0.1484375,0.0,0.0,0.0
26258527,20813,0,1.01171875,0.046875,0.044921875,0.091796875,0.0,0.0,0.0
26259778,20814,0,0.990234375,-0.0078125,0.0390625,0.03125,0.0,0.0,0.0
26261029,20815,0,0.9296875,-0.044921875,0.048828125,0.00390625,0.0,0.0,0.0
26262280,20816,0,0.984375,-0.076171875,0.0078125,-0.068359375,0.0,0.0,0.0
26263531,20817,0,1.046875,-0.09765625,-0.03125,-0.12890625,0.0,0.0,0.0
26264783,20818,0,1.02734375,-0.095703125,-0.0234375,-0.119140625,0.0,0.0,0.0
26266034,20819,0,1.0390625,-0.091796875,-0.03515625,-0.126953125,0.0,0.0,0.0
26267286,20820,0,1.037109375,-0.076171875,0.013671875,-0.0625,0.0,0.0,0.0
26268537,20821,0,0.98046875,-0.025390625,0.041015625,0.015625,0.0,0.0,0.0
26269789,20822,0,0.951171875,-0.009765625,0.025390625,0.015625,0.0,0.0,0.0
26271039,20823,0,1.001953125,0.0,0.01953125,0.01953125,0.0,0.0,0.0
26272289,20824,0,1.00390625,0.005859375,0.01953125,0.025390625,0.0,0.0,0.0
26273541,20825,0,1.05078125,-0.00390625,-0.005859375,-0.009765625,0.0,0.0,0.0
26274792,20826,0,1.0390625,-0.013671875,-0.001953125,-0.015625,0.0,0.0,0.0
26276044,20827,0,0.98828125,-0.02734375,0.017578125,-0.009765625,0.0,0.0,0.0
26277294,20828,0,0.98046875,-0.041015625,0.015625,-0.025390625,0.0,0.0,0.0
26278544,20829,0,0.98046875,-0.046875,0.015625,-0.03125,0.0,0.0,0.0
26279795,20830,0,0.9765625,-0.0546875,0.009765625,-0.044921875,0.0,0.0,0.0
26281045,20831,0,1.009765625,-0.052734375,-0.00390625,-0.056640625,0.0,0.0,0.0
26282295,20832,0,1.04296875,-0.05078125,-0.025390625,-0.076171875,0.0,0.0,0.0
26283546,20833,0,1.025390625,-0.0390625,-0.005859375,-0.044921875,0.0,0.0,0.0
26284797,20834,0,1.0078125,-0.033203125,0.009765625,-0.0234375,0.0,0.0,0.0
26286048,20835,0,1.005859375,-0.0234375,0.025390625,0.001953125,0.0,0.0,0.0
26287299,20836,0,0.982421875,-0.017578125,0.0234375,0.005859375,0.0,0.0,0.0
26288550,20837,0,0.96484375,-0.015625,0.033203125,0.017578125,0.0,0.0,0.0
26289800,20838,0,1.001953125,-0.013671875,0.021484375,0.0078125,0.0,0.0,0.0
26291052,20839,0,1.029296875,-0.01171875,0.001953125,-0.009765625,0.0,0.0,0.0
26292303,20840,0,1.01953125,-0.009765625,0.01171875,0.001953125,0.0,0.0,0.0
26293554,20841,0,1.025390625,-0.013671875,0.01171875,-0.001953125,0.0,0.0,0.0
26294805,20842,0,1.001953125,-0.01953125,0.017578125,-0.001953125,0.0,0.0,63172157440.0
26297308,20844,0,0.98046875,-0.0234375,0.021484375,-0.001953125,0.0,0.0,0.0
26298560,20845,0,1.001953125,-0.021484375,0.01953125,-0.001953125,0.0,0.0,0.0
26299811,20846,0,1.0078125,-0.021484375,0.017578125,-0.00390625,0.0,0.0,0.0
26301063,20847,0,1.017578125,-0.017578125,0.015625,-0.001953125,0.0,0.0,0.0
26302314,20848,0,1.029296875,-0.017578125,0.013671875,-0.00390625,0.0,0.0,0.0
26303565,20849,0,1.00390625,-0.0078125,0.021484375,0.013671875,0.0,0.0,0.0
26304816,20850,0,0.98828125,-0.005859375,0.03515625,0.029296875,0.0,0.0,0.0
26306066,20851,0,0.990234375,-0.005859375,0.025390625,0.01953125,0.0,0.0,0.0
26307318,20852,0,1.0,-0.01171875,0.021484375,0.009765625,0.0,0.0,0.0
26308569,20853,0,1.001953125,-0.01171875,0.02734375,0.015625,0.0,0.0,0.0
26309819,20854,0,1.015625,-0.0078125,0.015625,0.0078125,0.0,0.0,0.0
26311070,20855,0,1.02734375,-0.009765625,0.01171875,0.001953125,0.0,0.0,0.0
26312321,20856,0,1.01171875,-0.01171875,0.0234375,0.01171875,0.0,0.0,0.0
26313572,20857,0,0.998046875,-0.013671875,0.03125,0.017578125,0.0,0.0,0.0
26314823,20858,0,1.00390625,-0.01171875,0.029296875,0.017578125,0.0,0.0,0.0
26316074,20859,0,1.0,-0.017578125,0.029296875,0.01171875,0.0,0.0,0.0
26317325,20860,0,1.0,-0.0234375,0.029296875,0.005859375,0.0,0.0,0.0
26318575,20861,0,1.009765625,-0.025390625,0.017578125,-0.0078125,0.0,0.0,0.0
26319825,20862,0,1.025390625,-0.025390625,0.021484375,-0.00390625,0.0,0.0,0.0
26321076,20863,0,1.0078125,-0.025390625,0.017578125,-0.0078125,0.0,0.0,0.0
26322326,20864,0,0.998046875,-0.021484375,0.025390625,0.00390625,0.0,0.0,0.0
26323577,20865,0,0.990234375,-0.0234375,0.03125,0.0078125,0.0,0.0,0.0
26324828,20866,0,1.0,-0.025390625,0.0234375,-0.001953125,0.0,0.0,0.0
26326078,20867,0,1.015625,-0.029296875,0.017578125,-0.01171875,0.0,0.0,0.0
26327329,20868,0,1.01171875,-0.025390625,0.013671875,-0.01171875,0.0,0.0,0.0
26328581,20869,0,1.01171875,-0.03125,0.009765625,-0.021484375,0.0,0.0,0.0
26329833,20870,0,1.01171875,-0.033203125,0.0078125,-0.025390625,0.0,0.0,0.0
26331083,20871,0,0.99609375,-0.033203125,0.013671875,-0.01953125,0.0,0.0,0.0
26332333,20872,0,0.990234375,-0.037109375,0.015625,-0.021484375,0.0,0.0,0.0
26333584,20873,0,0.99609375,-0.033203125,0.015625,-0.017578125,0.0,0.0,0.0
26334835,20874,0,0.994140625,-0.041015625,0.013671875,-0.02734375,0.0,0.0,0.0
26336085,20875,0,1.00390625,-0.037109375,0.0078125,-0.029296875,0.0,0.0,0.0
26337336,20876,0,1.017578125,-0.033203125,0.0,-0.033203125,0.0,0.0,0.0
26338587,20877,0,1.009765625,-0.037109375,0.005859375,-0.03125,0.0,0.0,0.0
26339838,20878,0,1.0,-0.029296875,0.009765625,-0.01953125,0.0,0.0,0.0
26341090,20879,0,1.00390625,-0.037109375,0.01171875,-0.025390625,0.0,0.0,0.0
26342341,20880,0,0.994140625,-0.037109375,0.009765625,-0.02734375,0.0,0.0,0.0
26343592,20881,0,0.994140625,-0.037109375,0.015625,-0.021484375,0.0,0.0,0.0
26344844,20882,0,1.01171875,-0.03515625,0.009765625,-0.025390625,0.0,0.0,0.0
26346095,20883,0,1.0234375,-0.037109375,0.0,-0.037109375,0.0,0.0,0.0
26347346,20884,0,1.015625,-0.037109375,0.005859375,-0.03125,0.0,0.0,0.0
26348597,20885,0,1.015625,-0.03125,0.005859375,-0.025390625,0.0,0.0,0.0
26349849,20886,0,1.001953125,-0.03515625,0.005859375,-0.029296875,0.0,0.0,0.0
26351099,20887,0,0.9921875,-0.03515625,0.015625,-0.01953125,0.0,0.0,0.0
26352351,20888,0,0.9921875,-0.03125,0.015625,-0.015625,0.0,0.0,0.0
26353602,20889,0,1.00390625,-0.029296875,0.009765625,-0.01953125,0.0,0.0,0.0
26354854,20890,0,1.009765625,-0.025390625,0.009765625,-0.015625,0.0,0.0,0.0
26356104,20891,0,1.005859375,-0.025390625,0.005859375,-0.01953125,0.0,0.0,0.0
26357354,20892,0,1.013671875,-0.02734375,0.001953125,-0.025390625,0.0,0.0,0.0
26358605,20893,0,0.99609375,-0.0234375,0.01171875,-0.01171875,0.0,0.0,0.0
26359855,20894,0,0.998046875,-0.021484375,0.021484375,0.0,0.0,0.0,0.0
26361107,20895,0,0.998046875,-0.021484375,0.01953125,-0.001953125,0.0,0.0,0.0
26362358,20896,0,0.998046875,-0.021484375,0.015625,-0.005859375,0.0,0.0,0.0
26363609,20897,0,1.00390625,-0.01953125,0.009765625,-0.009765625,0.0,0.0,0.0
26364859,20898,0,1.001953125,-0.017578125,0.01171875,-0.005859375,0.0,0.0,0.0
26366111,20899,0,1.013671875,-0.017578125,0.013671875,-0.00390625,0.0,0.0,0.0
26367362,20900,0,1.0078125,-0.015625,0.013671875,-0.001953125,0.0,0.0,0.0
26368613,20901,0,1.005859375,-0.017578125,0.025390625,0.0078125,0.0,0.0,0.0
26369865,20902,0,0.998046875,-0.015625,0.015625,0.0,0.0,0.0,0.0
26371115,20903,0,1.0,-0.01953125,0.0234375,0.00390625,0.0,0.0,0.0
26372365,20904,0,1.0078125,-0.01171875,0.013671875,0.001953125,0.0,0.0,0.0
26373617,20905,0,1.0,-0.009765625,0.015625,0.005859375,0.0,0.0,0.0
26374867,20906,0,1.005859375,-0.0078125,0.013671875,0.005859375,0.0,0.0,0.0
26376118,20907,0,1.0,-0.009765625,0.021484375,0.01171875,0.0,0.0,0.0
26377369,20908,0,0.998046875,-0.005859375,0.01953125,0.013671875,0.0,0.0,0.0
26378620,20909,0,0.99609375,-0.015625,0.025390625,0.009765625,0.0,0.0,0.0
26379871,20910,0,1.0,-0.013671875,0.013671875,0.0,0.0,0.0,0.0
26381123,20911,0,1.009765625,-0.017578125,0.01953125,0.001953125,0.0,0.0,0.0
26382374,20912,0,1.0078125,-0.01953125,0.021484375,0.001953125,0.0,0.0,0.0
26383624,20913,0,1.0078125,-0.021484375,0.0234375,0.001953125,0.0,0.0,0.0
26384875,20914,0,1.00390625,-0.015625,0.025390625,0.009765625,0.0,0.0,0.0
26386125,20915,0,1.001953125,-0.01953125,0.0234375,0.00390625,0.0,0.0,0.0
26387375,20916,0,0.99609375,-0.021484375,0.0234375,0.001953125,0.0,0.0,0.0
26388626,20917,0,1.001953125,-0.025390625,0.025390625,0.0,0.0,0.0,0.0
26389877,20918,0,1.005859375,-0.0234375,0.01953125,-0.00390625,0.0,0.0,0.0
26391129,20919,0,1.0,-0.021484375,0.01953125,-0.001953125,0.0,0.0,0.0
26392380,20920,0,1.0078125,-0.025390625,0.017578125,-0.0078125,0.0,0.0,0.0
26393630,20921,0,1.00390625,-0.029296875,0.01953125,-0.009765625,0.0,0.0,0.0
26394881,20922,0,0.998046875,-0.0234375,0.025390625,0.001953125,0.0,0.0,0.0
26396133,20923,0,1.009765625,-0.02734375,0.021484375,-0.005859375,0.0,0.0,0.0
26397384,20924,0,1.01171875,-0.037109375,0.015625,-0.021484375,0.0,0.0,0.0
26398634,20925,0,1.0,-0.029296875,0.015625,-0.013671875,0.0,0.0,0.0
26399886,20926,0,1.013671875,-0.037109375,0.013671875,-0.0234375,0.0,0.0,0.0
26401136,20927,0,1.0078125,-0.029296875,0.01171875,-0.017578125,0.0,0.0,0.0
26402386,20928,0,0.998046875,-0.037109375,0.017578125,-0.01953125,0.0,0.0,0.0
26403638,20929,0,1.0,-0.037109375,0.015625,-0.021484375,0.0,0.0,0.0
26404888,20930,0,0.99609375,-0.0390625,0.01953125,-0.01953125,0.0,0.0,0.0
26406139,20931,0,1.0,-0.037109375,0.017578125,-0.01953125,0.0,0.0,0.0
26407391,20932,0,1.005859375,-0.03515625,0.015625,-0.01953125,0.0,0.0,0.0
26408641,20933,0,1.001953125,-0.033203125,0.009765625,-0.0234375,0.0,0.0,0.0
26409892,20934,0,1.00390625,-0.03515625,0.013671875,-0.021484375,0.0,0.0,0.0
26411142,20935,0,1.005859375,-0.03125,0.013671875,-0.017578125,0.0,0.0,0.0
26412393,20936,0,1.00390625,-0.03515625,0.015625,-0.01953125,0.0,0.0,0.0
26413645,20937,0,1.001953125,-0.033203125,0.017578125,-0.015625,0.0,0.0,0.0
26414895,20938,0,0.994140625,-0.03515625,0.017578125,-0.017578125,0.0,0.0,0.0
26416147,20939,0,1.001953125,-0.03515625,0.015625,-0.01953125,0.0,0.0,0.0
26417397,20940,0,1.005859375,-0.037109375,0.013671875,-0.0234375,0.0,0.0,0.0
26418649,20941,0,1.005859375,-0.033203125,0.015625,-0.017578125,0.0,0.0,0.0
26419899,20942,0,1.005859375,-0.03515625,0.01171875,-0.0234375,0.0,0.0,0.0
26421149,20943,0,1.00390625,-0.03125,0.0078125,-0.0234375,0.0,0.0,0.0
26422399,20944,0,1.001953125,-0.03125,0.005859375,-0.025390625,0.0,0.0,0.0
26423650,20945,0,0.98828125,-0.025390625,0.017578125,-0.0078125,0.0,0.0,0.0
26424902,20946,0,1.00390625,-0.02734375,0.0078125,-0.01953125,0.0,0.0,0.0
26426153,20947,0,0.99609375,-0.029296875,0.021484375,-0.0078125,0.0,0.0,0.0
26427404,20948,0,1.001953125,-0.02734375,0.015625,-0.01171875,0.0,0.0,0.0
26428654,20949,0,1.0,-0.025390625,0.0234375,-0.001953125,0.0,0.0,0.0
26429904,20950,0,1.001953125,-0.01953125,0.01171875,-0.0078125,0.0,0.0,0.0
26431155,20951,0,1.0078125,-0.0234375,0.013671875,-0.009765625,0.0,0.0,0.0
26432407,20952,0,1.005859375,-0.01953125,0.017578125,-0.001953125,0.0,0.0,0.0
26433657,20953,0,1.005859375,-0.021484375,0.015625,-0.005859375,0.0,0.0,0.0
26434909,20954,0,1.0,-0.017578125,0.01953125,0.001953125,0.0,0.0,0.0
26436159,20955,0,1.009765625,-0.01953125,0.015625,-0.00390625,0.0,0.0,0.0
26437409,20956,0,1.009765625,-0.01953125,0.013671875,-0.005859375,0.0,0.0,0.0
26438661,20957,0,1.00390625,-0.01953125,0.01171875,-0.0078125,0.0,0.0,0.0
26439911,20958,0,1.0,-0.017578125,0.017578125,0.0,0.0,0.0,0.0
26441161,20959,0,1.00390625,-0.017578125,0.017578125,0.0,0.0,0.0,0.0
26442411,20960,0,0.998046875,-0.015625,0.015625,0.0,0.0,0.0,0.0
26443663,20961,0,1.005859375,-0.015625,0.013671875,-0.001953125,0.0,0.0,0.0
26444913,20962,0,1.00390625,-0.017578125,0.01171875,-0.005859375,0.0,0.0,0.0
26446164,20963,0,1.009765625,-0.009765625,0.01171875,0.001953125,0.0,0.0,0.0
26447415,20964,0,1.00390625,-0.01953125,0.013671875,-0.005859375,0.0,0.0,0.0
26448666,20965,0,1.00390625,-0.01953125,0.017578125,-0.001953125,0.0,0.0,0.0
26449916,20966,0,1.001953125,-0.017578125,0.01953125,0.001953125,0.0,0.0,0.0
26451167,20967,0,1.009765625,-0.015625,0.013671875,-0.001953125,0.0,0.0,0.0
26452417,20968,0,0.99609375,-0.021484375,0.0078125,-0.013671875,0.0,0.0,0.0
26453668,20969,0,0.990234375,-0.021484375,0.0234375,0.001953125,0.0,0.0,0.0
26454920,20970,0,0.99609375,-0.01953125,0.025390625,0.005859375,0.0,0.0,0.0
26456171,20971,0,1.00390625,-0.017578125,0.009765625,-0.0078125,0.0,0.0,0.0
26457421,20972,0,1.0,-0.01953125,0.01953125,0.0,0.0,0.0,0.0
26458672,20973,0,1.0,-0.021484375,0.01953125,-0.001953125,0.0,0.0,0.0
26459924,20974,0,1.0,-0.025390625,0.01953125,-0.005859375,0.0,0.0,0.0
26461174,20975,0,0.998046875,-0.02734375,0.01953125,-0.0078125,0.0,0.0,0.0
26462425,20976,0,1.001953125,-0.025390625,0.01953125,-0.005859375,0.0,0.0,0.0
26463677,20977,0,1.0078125,-0.0234375,0.013671875,-0.009765625,0.0,0.0,0.0
26464927,20978,0,1.00390625,-0.03125,0.013671875,-0.017578125,0.0,0.0,0.0
26466177,20979,0,1.0078125,-0.025390625,0.01171875,-0.013671875,0.0,0.0,0.0
26467429,20980,0,1.0,-0.029296875,0.013671875,-0.015625,0.0,0.0,0.0
26468679,20981,0,1.005859375,-0.033203125,0.013671875,-0.01953125,0.0,0.0,0.0
26469931,20982,0,1.00390625,-0.029296875,0.013671875,-0.015625,0.0,0.0,0.0
26471181,20983,0,1.00390625,-0.03125,0.01171875,-0.01953125,0.0,0.0,0.0
26472431,20984,0,1.00390625,-0.03125,0.013671875,-0.017578125,0.0,0.0,0.0
26473683,20985,0,1.00390625,-0.033203125,0.009765625,-0.0234375,0.0,0.0,0.0
26474933,20986,0,1.005859375,-0.033203125,0.01171875,-0.021484375,0.0,0.0,0.0
26476183,20987,0,1.0,-0.03515625,0.01171875,-0.0234375,0.0,0.0,0.0
26477434,20988,0,1.00390625,-0.03515625,0.017578125,-0.017578125,0.0,0.0,0.0
26478685,20989,0,1.001953125,-0.03125,0.025390625,-0.005859375,0.0,0.0,0.0
26479936,20990,0,1.0,-0.037109375,0.01953125,-0.017578125,0.0,0.0,0.0
26481186,20991,0,1.0,-0.029296875,0.013671875,-0.015625,0.0,0.0,0.0
26482437,20992,0,1.0078125,-0.03125,0.021484375,-0.009765625,0.0,0.0,0.0
26483687,20993,0,1.00390625,-0.03125,0.013671875,-0.017578125,0.0,0.0,0.0
26484937,20994,0,1.00390625,-0.037109375,0.021484375,-0.015625,0.0,0.0,0.0
26486188,20995,0,1.0078125,-0.03515625,0.021484375,-0.013671875,0.0,0.0,0.0
26487440,20996,0,1.001953125,-0.03515625,0.01171875,-0.0234375,0.0,0.0,0.0
26488690,20997,0,1.00390625,-0.025390625,0.013671875,-0.01171875,0.0,0.0,0.0
26489942,20998,0,1.005859375,-0.03125,0.013671875,-0.017578125,0.0,0.0,0.0
26491193,20999,0,1.005859375,-0.02734375,0.017578125,-0.009765625,0.0,0.0,0.0
26492445,21000,0,1.001953125,-0.029296875,0.013671875,-0.015625,0.0,0.0,0.0
26493695,21001,0,1.0078125,-0.025390625,0.01953125,-0.005859375,0.0,0.0,0.0
26494947,21002,0,1.00390625,-0.029296875,0.009765625,-0.01953125,0.0,0.0,0.0
26496198,21003,0,0.994140625,-0.029296875,0.015625,-0.013671875,0.0,0.0,0.0
26497450,21004,0,1.00390625,-0.02734375,0.013671875,-0.013671875,0.0,0.0,0.0
26498700,21005,0,1.00390625,-0.025390625,0.017578125,-0.0078125,0.0,0.0,0.0
26499952,21006,0,1.00390625,-0.025390625,0.01953125,-0.005859375,0.0,0.0,0.0
26501203,21007,0,1.00390625,-0.01953125,0.025390625,0.005859375,0.0,0.0,0.0
26502454,21008,0,0.99609375,-0.021484375,0.021484375,0.0,0.0,0.0,0.0
26503705,21009,0,1.00390625,-0.013671875,0.017578125,0.00390625,0.0,0.0,0.0
26504957,21010,0,1.001953125,-0.021484375,0.017578125,-0.00390625,0.0,0.0,0.0
26506207,21011,0,1.0,-0.01953125,0.01171875,-0.0078125,0.0,0.0,0.0
26507459,21012,0,1.0,-0.017578125,0.017578125,0.0,0.0,0.0,0.0
26508709,21013,0,1.0078125,-0.015625,0.01953125,0.00390625,0.0,0.0,0.0
26509959,21014,0,1.0,-0.025390625,0.021484375,-0.00390625,0.0,0.0,0.0
26511209,21015,0,1.001953125,-0.01953125,0.017578125,-0.001953125,0.0,0.0,0.0
26512459,21016,0,1.00390625,-0.021484375,0.017578125,-0.00390625,0.0,0.0,0.0
26513711,21017,0,0.998046875,-0.01953125,0.017578125,-0.001953125,0.0,0.0,0.0
26514961,21018,0,1.0078125,-0.021484375,0.021484375,0.0,0.0,0.0,0.0
26516213,21019,0,1.001953125,-0.01953125,0.01953125,0.0,0.0,0.0,0.0
26517464,21020,0,1.005859375,-0.021484375,0.01953125,-0.001953125,0.0,0.0,0.0
26518715,21021,0,1.00390625,-0.017578125,0.017578125,0.0,0.0,0.0,0.0
26519966,21022,0,1.00390625,-0.0234375,0.021484375,-0.001953125,0.0,0.0,0.0
26521216,21023,0,1.001953125,-0.0234375,0.01953125,-0.00390625,0.0,0.0,0.0
26522467,21024,0,1.009765625,-0.01953125,0.013671875,-0.005859375,0.0,0.0,0.0
26523718,21025,0,1.009765625,-0.0234375,0.017578125,-0.005859375,0.0,0.0,0.0
26524968,21026,0,1.00390625,-0.021484375,0.01171875,-0.009765625,0.0,0.0,0.0
26526219,21027,0,1.005859375,-0.025390625,0.01171875,-0.013671875,0.0,0.0,0.0
26527470,21028,0,1.0078125,-0.029296875,0.01953125,-0.009765625,0.0,0.0,0.0
26528721,21029,0,1.0,-0.02734375,0.015625,-0.01171875,0.0,0.0,0.0
26529971,21030,0,1.005859375,-0.021484375,0.01171875,-0.009765625,0.0,0.0,0.0
26531223,21031,0,1.0,-0.02734375,0.009765625,-0.017578125,0.0,0.0,0.0
26532473,21032,0,1.0078125,-0.0234375,0.01171875,-0.01171875,0.0,0.0,0.0
26533723,21033,0,1.00390625,-0.021484375,0.0078125,-0.013671875,0.0,0.0,0.0
26534975,21034,0,1.005859375,-0.02734375,0.015625,-0.01171875,0.0,0.0,0.0
26536226,21035,0,0.998046875,-0.03125,0.017578125,-0.013671875,0.0,0.0,0.0
26537476,21036,0,1.005859375,-0.029296875,0.005859375,-0.0234375,0.0,0.0,0.0
26538728,21037,0,1.001953125,-0.025390625,0.01171875,-0.013671875,0.0,0.0,0.0
26539979,21038,0,0.998046875,-0.029296875,0.013671875,-0.015625,0.0,0.0,0.0
26541229,21039,0,1.0,-0.029296875,0.013671875,-0.015625,0.0,0.0,0.0
26542481,21040,0,1.005859375,-0.033203125,0.015625,-0.017578125,0.0,0.0,0.0
26543731,21041,0,1.00390625,-0.025390625,0.013671875,-0.01171875,0.0,0.0,0.0
26544981,21042,0,1.005859375,-0.029296875,0.013671875,-0.015625,0.0,0.0,0.0
26546232,21043,0,1.00390625,-0.03125,0.017578125,-0.013671875,0.0,0.0,0.0
26547483,21044,0,1.0,-0.029296875,0.015625,-0.013671875,0.0,0.0,0.0
26548734,21045,0,1.00390625,-0.029296875,0.01953125,-0.009765625,0.0,0.0,0.0
26549986,21046,0,1.005859375,-0.029296875,0.01171875,-0.017578125,0.0,0.0,0.0
26551236,21047,0,1.001953125,-0.03125,0.01171875,-0.01953125,0.0,0.0,0.0
26552486,21048,0,1.005859375,-0.033203125,0.009765625,-0.0234375,0.0,0.0,0.0
26553737,21049,0,1.0078125,-0.029296875,0.013671875,-0.015625,0.0,0.0,0.0
26554987,21050,0,1.005859375,-0.033203125,0.01953125,-0.013671875,0.0,0.0,0.0
26556238,21051,0,1.009765625,-0.029296875,0.01953125,-0.009765625,0.0,0.0,0.0
26557489,21052,0,1.005859375,-0.033203125,0.013671875,-0.01953125,0.0,0.0,0.0
26558740,21053,0,1.00390625,-0.03125,0.017578125,-0.013671875,0.0,0.0,0.0
26559991,21054,0,1.0078125,-0.025390625,0.01953125,-0.005859375,0.0,0.0,0.0
26561241,21055,0,1.001953125,-0.029296875,0.017578125,-0.01171875,0.0,0.0,0.0
26562492,21056,0,0.998046875,-0.02734375,-0.001953125,-0.029296875,0.0,0.0,0.0
26563744,21057,0,0.998046875,-0.029296875,0.0234375,-0.005859375,0.0,0.0,0.0
26564994,21058,0,1.0078125,-0.021484375,0.01171875,-0.009765625,0.0,0.0,0.0
26566245,21059,0,1.001953125,-0.025390625,0.015625,-0.009765625,0.0,0.0,0.0
26567496,21060,0,1.005859375,-0.0234375,0.025390625,0.001953125,0.0,0.0,0.0
26568747,21061,0,0.998046875,-0.0234375,0.0078125,-0.015625,0.0,0.0,0.0
26569998,21062,0,1.00390625,-0.0234375,0.01953125,-0.00390625,0.0,0.0,0.0
26571249,21063,0,1.00390625,-0.021484375,0.015625,-0.005859375,0.0,0.0,0.0
26572499,21064,0,1.0078125,-0.01953125,0.01953125,0.0,0.0,0.0,0.0
26573751,21065,0,1.0,-0.021484375,0.017578125,-0.00390625,0.0,0.0,0.0
26575002,21066,0,1.005859375,-0.0234375,0.013671875,-0.009765625,0.0,0.0,0.0
26576253,21067,0,1.0,-0.01953125,0.01953125,0.0,0.0,0.0,0.0
26577503,21068,0,1.001953125,-0.0234375,0.015625,-0.0078125,0.0,0.0,0.0
26578755,21069,0,1.0078125,-0.0234375,0.017578125,-0.005859375,0.0,0.0,0.0
26580005,21070,0,1.005859375,-0.021484375,0.01953125,-0.001953125,0.0,0.0,0.0
26581256,21071,0,1.00390625,-0.021484375,0.017578125,-0.00390625,0.0,0.0,0.0
26582506,21072,0,1.009765625,-0.021484375,0.015625,-0.005859375,0.0,0.0,0.0
26583757,21073,0,0.99609375,-0.0234375,0.01171875,-0.01171875,0.0,0.0,0.0
26585008,21074,0,1.005859375,-0.021484375,0.015625,-0.005859375,0.0,0.0,0.0
26586258,21075,0,1.009765625,-0.021484375,0.0234375,0.001953125,0.0,0.0,0.0
26587508,21076,0,1.009765625,-0.01953125,0.013671875,-0.005859375,0.0,0.0,0.0
26588759,21077,0,1.001953125,-0.025390625,0.005859375,-0.01953125,0.0,0.0,0.0
26590009,21078,0,1.005859375,-0.02734375,0.01171875,-0.015625,0.0,0.0,0.0
26591259,21079,0,1.005859375,-0.02734375,0.017578125,-0.009765625,0.0,0.0,0.0
26592510,21080,0,0.998046875,-0.025390625,0.013671875,-0.01171875,0.0,0.0,0.0
26593762,21081,0,1.005859375,-0.0234375,0.021484375,-0.001953125,0.0,0.0,0.0
26595012,21082,0,1.009765625,-0.0234375,0.015625,-0.0078125,0.0,0.0,0.0
26596271,21083,0,1.005859375,-0.025390625,0.01171875,-0.013671875,0.0,0.0,0.0
26597521,21084,0,1.00390625,-0.021484375,0.0078125,-0.013671875,0.0,0.0,0.0
26598773,21085,0,1.0078125,-0.025390625,0.0078125,-0.017578125,0.0,0.0,0.0
26600023,21086,0,1.005859375,-0.02734375,0.0078125,-0.01953125,0.0,0.0,0.0
26601274,21087,0,1.005859375,-0.029296875,0.009765625,-0.01953125,0.0,0.0,0.0
26602525,21088,0,1.00390625,-0.029296875,0.015625,-0.013671875,0.0,0.0,0.0
26603776,21089,0,1.0078125,-0.02734375,0.009765625,-0.017578125,0.0,0.0,0.0
26605026,21090,0,0.99609375,-0.03125,0.013671875,-0.017578125,0.0,0.0,0.0
26606276,21091,0,1.005859375,-0.029296875,0.005859375,-0.0234375,0.0,0.0,0.0
26607527,21092,0,1.005859375,-0.02734375,0.01953125,-0.0078125,0.0,0.0,0.0
26608778,21093,0,1.0078125,-0.03125,0.01953125,-0.01171875,0.0,0.0,0.0
26610029,21094,0,1.009765625,-0.029296875,0.005859375,-0.0234375,0.0,0.0,0.0
26611280,21095,0,1.0078125,-0.033203125,0.0078125,-0.025390625,0.0,0.0,0.0
26612531,21096,0,1.009765625,-0.029296875,0.01171875,-0.017578125,0.0,0.0,0.0
26613783,21097,0,1.001953125,-0.029296875,0.015625,-0.013671875,0.0,0.0,0.0
26615034,21098,0,1.005859375,-0.025390625,0.017578125,-0.0078125,0.0,0.0,0.0
26616286,21099,0,0.9921875,-0.03125,0.01953125,-0.01171875,0.0,0.0,0.0
26617537,21100,0,1.0078125,-0.02734375,0.015625,-0.01171875,0.0,0.0,0.0
26618789,21101,0,1.00390625,-0.02734375,0.015625,-0.01171875,0.0,0.0,0.0
26620039,21102,0,1.001953125,-0.025390625,0.01953125,-0.005859375,0.0,0.0,0.0
26621289,21103,0,1.001953125,-0.0234375,0.017578125,-0.005859375,0.0,0.0,0.0
26622541,21104,0,1.0,-0.021484375,0.017578125,-0.00390625,0.0,0.0,0.0
26623792,21105,0,1.005859375,-0.025390625,0.013671875,-0.01171875,0.0,0.0,0.0
26625044,21106,0,1.005859375,-0.025390625,0.017578125,-0.0078125,0.0,0.0,0.0
26626294,21107,0,1.0078125,-0.025390625,0.01953125,-0.005859375,0.0,0.0,0.0
26627544,21108,0,0.998046875,-0.025390625,0.01953125,-0.005859375,0.0,0.0,0.0
26628795,21109,0,1.001953125,-0.0234375,0.015625,-0.0078125,0.0,0.0,0.0
26630045,21110,0,0.998046875,-0.033203125,0.015625,-0.017578125,0.0,0.0,0.0
26631295,21111,0,1.00390625,-0.029296875,0.015625,-0.013671875,0.0,0.0,0.0
26632546,21112,0,1.00390625,-0.021484375,0.01171875,-0.009765625,0.0,0.0,0.0
26633797,21113,0,1.0,-0.0234375,0.01953125,-0.00390625,0.0,0.0,0.0
26635048,21114,0,1.00390625,-0.02734375,0.01953125,-0.0078125,0.0,0.0,0.0
26636299,21115,0,1.001953125,-0.01953125,0.0078125,-0.01171875,0.0,0.0,0.0
26637550,21116,0,1.0078125,-0.025390625,0.01171875,-0.013671875,0.0,0.0,0.0
26638800,21117,0,1.013671875,-0.017578125,0.015625,-0.001953125,0.0,0.0,0.0
26640052,21118,0,0.998046875,-0.0234375,0.021484375,-0.001953125,0.0,0.0,0.0
26641303,21119,0,0.998046875,-0.0234375,0.017578125,-0.005859375,0.0,0.0,0.0
26642554,21120,0,1.005859375,-0.025390625,0.01953125,-0.005859375,0.0,0.0,0.0
26643805,21121,0,1.0078125,-0.02734375,0.017578125,-0.009765625,0.0,0.0,0.0
26645057,21122,0,1.00390625,-0.025390625,0.01171875,-0.013671875,0.0,0.0,0.0
26646308,21123,0,1.005859375,-0.025390625,0.01953125,-0.005859375,0.0,0.0,0.0
26647560,21124,0,1.005859375,-0.025390625,0.017578125,-0.0078125,0.0,0.0,0.0
26648811,21125,0,0.998046875,-0.01953125,0.015625,-0.00390625,0.0,0.0,0.0
26650063,21126,0,1.001953125,-0.0234375,0.017578125,-0.005859375,0.0,0.0,0.0
26651314,21127,0,1.005859375,-0.02734375,0.015625,-0.01171875,0.0,0.0,0.0
26652565,21128,0,1.001953125,-0.0234375,0.017578125,-0.005859375,0.0,0.0,0.0
26653816,21129,0,1.001953125,-0.029296875,0.021484375,-0.0078125,0.0,0.0,0.0
26655066,21130,0,1.001953125,-0.0234375,0.015625,-0.0078125,0.0,0.0,0.0
26656318,21131,0,1.0,-0.021484375,0.017578125,-0.00390625,0.0,0.0,0.0
26657569,21132,0,1.005859375,-0.025390625,0.015625,-0.009765625,0.0,0.0,0.0
26658819,21133,0,1.0078125,-0.02734375,0.015625,-0.01171875,0.0,0.0,0.0
26660070,21134,0,1.005859375,-0.02734375,0.013671875,-0.013671875,0.0,0.0,0.0
26661321,21135,0,1.009765625,-0.029296875,0.01953125,-0.009765625,0.0,0.0,0.0
26662572,21136,0,1.001953125,-0.0234375,0.015625,-0.0078125,0.0,0.0,0.0
26663823,21137,0,1.00390625,-0.03125,0.01953125,-0.01171875,0.0,0.0,0.0
26665074,21138,0,1.009765625,-0.029296875,0.017578125,-0.01171875,0.0,0.0,0.0
26666325,21139,0,0.998046875,-0.025390625,0.01953125,-0.005859375,0.0,0.0,0.0
26667575,21140,0,0.99609375,-0.029296875,0.013671875,-0.015625,0.0,0.0,0.0
26668825,21141,0,1.0078125,-0.029296875,0.009765625,-0.01953125,0.0,0.0,0.0
26670076,21142,0,1.005859375,-0.02734375,0.01953125,-0.0078125,0.0,0.0,0.0
26671326,21143,0,1.001953125,-0.0234375,0.01171875,-0.01171875,0.0,0.0,0.0
26672577,21144,0,1.00390625,-0.029296875,0.015625,-0.013671875,0.0,0.0,0.0
26673828,21145,0,1.00390625,-0.029296875,0.017578125,-0.01171875,0.0,0.0,0.0
26675078,21146,0,1.00390625,-0.029296875,0.01953125,-0.009765625,0.0,0.0,0.0
26676329,21147,0,1.001953125,-0.029296875,0.01171875,-0.017578125,0.0,0.0,0.0
26677581,21148,0,1.005859375,-0.033203125,0.01953125,-0.013671875,0.0,0.0,0.0
26678833,21149,0,1.00390625,-0.02734375,0.01171875,-0.015625,0.0,0.0,0.0
26680083,21150,0,0.998046875,-0.02734375,0.015625,-0.01171875,0.0,0.0,0.0
26681333,21151,0,1.005859375,-0.029296875,0.013671875,-0.015625,0.0,0.0,0.0
26682584,21152,0,1.005859375,-0.029296875,0.013671875,-0.015625,0.0,0.0,0.0
26683835,21153,0,1.005859375,-0.02734375,0.013671875,-0.013671875,0.0,0.0,0.0
26685085,21154,0,1.001953125,-0.02734375,0.01171875,-0.015625,0.0,0.0,0.0
26686336,21155,0,1.0,-0.025390625,0.013671875,-0.01171875,0.0,0.0,0.0
26687587,21156,0,1.005859375,-0.03125,0.01953125,-0.01171875,0.0,0.0,0.0
26688838,21157,0,1.0078125,-0.021484375,0.01953125,-0.001953125,0.0,0.0,0.0
26690090,21158,0,1.0078125,-0.033203125,0.01171875,-0.021484375,0.0,0.0,0.0
26691341,21159,0,1.00390625,-0.029296875,0.005859375,-0.0234375,0.0,0.0,0.0
26692592,21160,0,0.994140625,-0.025390625,0.013671875,-0.01171875,0.0,0.0,0.0
26693844,21161,0,1.005859375,-0.025390625,0.01953125,-0.005859375,0.0,0.0,0.0
26695095,21162,0,0.994140625,-0.021484375,0.015625,-0.005859375,0.0,0.0,0.0
26696346,21163,0,0.998046875,-0.03125,0.0078125,-0.0234375,0.0,0.0,0.0
26697597,21164,0,1.0,-0.025390625,0.015625,-0.009765625,0.0,0.0,0.0
26698849,21165,0,1.005859375,-0.021484375,0.017578125,-0.00390625,0.0,0.0,0.0
26700099,21166,0,1.00390625,-0.021484375,0.01953125,-0.001953125,0.0,0.0,0.0
26701351,21167,0,1.00390625,-0.0234375,0.017578125,-0.005859375,0.0,0.0,0.0
26702602,21168,0,1.001953125,-0.01953125,0.017578125,-0.001953125,0.0,0.0,0.0
26703854,21169,0,1.00390625,-0.0234375,0.01953125,-0.00390625,0.0,0.0,0.0
26705104,21170,0,1.005859375,-0.01953125,0.0234375,0.00390625,0.0,0.0,0.0
26706354,21171,0,1.00390625,-0.021484375,0.015625,-0.005859375,0.0,0.0,0.0
26707605,21172,0,0.994140625,-0.01953125,0.017578125,-0.001953125,0.0,0.0,0.0
26708855,21173,0,1.001953125,-0.021484375,0.01953125,-0.001953125,0.0,0.0,0.0
26710107,21174,0,1.0,-0.025390625,0.005859375,-0.01953125,0.0,0.0,0.0
26711358,21175,0,1.0078125,-0.025390625,0.015625,-0.009765625,0.0,0.0,0.0
26712609,21176,0,1.005859375,-0.02734375,0.017578125,-0.009765625,0.0,0.0,0.0
26713859,21177,0,1.0,-0.025390625,0.01953125,-0.005859375,0.0,0.0,0.0
26715111,21178,0,1.005859375,-0.025390625,0.0234375,-0.001953125,0.0,0.0,0.0
26716362,21179,0,1.001953125,-0.0234375,0.017578125,-0.005859375,0.0,0.0,0.0
26717613,21180,0,0.994140625,-0.0234375,0.021484375,-0.001953125,0.0,0.0,0.0
26718865,21181,0,1.00390625,-0.02734375,0.01171875,-0.015625,0.0,0.0,0.0
26720115,21182,0,1.01171875,-0.0234375,0.017578125,-0.005859375,0.0,0.0,0.0
26721365,21183,0,1.00390625,-0.01953125,0.021484375,0.001953125,0.0,0.0,0.0
26722617,21184,0,1.001953125,-0.01953125,0.01953125,0.0,0.0,0.0,0.0
26723867,21185,0,1.005859375,-0.025390625,0.009765625,-0.015625,0.0,0.0,0.0
26725118,21186,0,1.009765625,-0.02734375,0.013671875,-0.013671875,0.0,0.0,0.0
26726369,21187,0,1.0078125,-0.033203125,0.005859375,-0.02734375,0.0,0.0,0.0
26727620,21188,0,1.0,-0.03515625,0.013671875,-0.021484375,0.0,0.0,0.0
26728871,21189,0,1.001953125,-0.029296875,0.017578125,-0.01171875,0.0,0.0,0.0
26730123,21190,0,1.009765625,-0.01953125,0.013671875,-0.005859375,0.0,0.0,0.0
26731374,21191,0,1.005859375,-0.01953125,0.01953125,0.0,0.0,0.0,0.0
26732624,21192,0,1.001953125,-0.0234375,0.017578125,-0.005859375,0.0,0.0,0.0
26733875,21193,0,0.998046875,-0.021484375,0.013671875,-0.0078125,0.0,0.0,0.0
26735125,21194,0,1.0,-0.025390625,0.013671875,-0.01171875,0.0,0.0,0.0
26736375,21195,0,1.00390625,-0.0234375,0.013671875,-0.009765625,0.0,0.0,0.0
26737626,21196,0,1.005859375,-0.03515625,0.017578125,-0.017578125,0.0,0.0,0.0
26738877,21197,0,1.001953125,-0.029296875,0.009765625,-0.01953125,0.0,0.0,0.0
26740129,21198,0,1.005859375,-0.037109375,0.009765625,-0.02734375,0.0,0.0,0.0
26741380,21199,0,1.0,-0.033203125,0.013671875,-0.01953125,0.0,0.0,0.0
26742630,21200,0,1.009765625,-0.029296875,0.01171875,-0.017578125,0.0,0.0,0.0
26743881,21201,0,1.009765625,-0.033203125,0.015625,-0.017578125,0.0,0.0,0.0
26745133,21202,0,1.0,-0.02734375,0.01953125,-0.0078125,0.0,0.0,0.0
26746384,21203,0,1.01171875,-0.03125,0.013671875,-0.017578125,0.0,0.0,0.0
26747634,21204,0,1.0,-0.029296875,0.017578125,-0.01171875,0.0,0.0,0.0
26748886,21205,0,1.005859375,-0.02734375,0.017578125,-0.009765625,0.0,0.0,0.0
26750136,21206,0,1.001953125,-0.025390625,0.017578125,-0.0078125,0.0,0.0,0.0
26751386,21207,0,1.005859375,-0.02734375,0.01953125,-0.0078125,0.0,0.0,0.0
26752638,21208,0,1.005859375,-0.02734375,0.01953125,-0.0078125,0.0,0.0,0.0
26753888,21209,0,1.0078125,-0.02734375,0.0078125,-0.01953125,0.0,0.0,0.0
26755139,21210,0,1.005859375,-0.025390625,0.021484375,-0.00390625,0.0,0.0,0.0
26756391,21211,0,1.005859375,-0.02734375,0.015625,-0.01171875,0.0,0.0,0.0
26757641,21212,0,1.0,-0.025390625,0.01953125,-0.005859375,0.0,0.0,0.0
26758892,21213,0,1.005859375,-0.025390625,0.01953125,-0.005859375,0.0,0.0,0.0
26760142,21214,0,1.001953125,-0.025390625,0.01953125,-0.005859375,0.0,0.0,0.0
26761393,21215,0,1.001953125,-0.02734375,0.017578125,-0.009765625,0.0,0.0,0.0
26762645,21216,0,1.0,-0.02734375,0.01953125,-0.0078125,0.0,0.0,0.0
26763895,21217,0,1.005859375,-0.01953125,0.015625,-0.00390625,0.0,0.0,0.0
26765147,21218,0,1.005859375,-0.0234375,0.01171875,-0.01171875,0.0,0.0,0.0
26766397,21219,0,1.005859375,-0.021484375,0.015625,-0.005859375,0.0,0.0,0.0
26767649,21220,0,1.00390625,-0.0234375,0.01953125,-0.00390625,0.0,0.0,0.0
26768899,21221,0,1.00390625,-0.03125,0.017578125,-0.013671875,0.0,0.0,0.0
26770149,21222,0,1.0,-0.0234375,0.013671875,-0.009765625,0.0,0.0,0.0
26771399,21223,0,1.005859375,-0.025390625,0.025390625,0.0,0.0,0.0,0.0
26772650,21224,0,1.0078125,-0.021484375,0.0234375,0.001953125,0.0,0.0,0.0
26773902,21225,0,1.0078125,-0.02734375,0.015625,-0.01171875,0.0,0.0,0.0
26775153,21226,0,1.013671875,-0.0234375,0.01953125,-0.00390625,0.0,0.0,0.0
26776404,21227,0,0.990234375,-0.0234375,0.015625,-0.0078125,0.0,0.0,0.0
26777654,21228,0,1.005859375,-0.029296875,0.0234375,-0.005859375,0.0,0.0,0.0
26778904,21229,0,1.0078125,-0.025390625,0.01171875,-0.013671875,0.0,0.0,0.0
26780155,21230,0,1.0078125,-0.01953125,0.021484375,0.001953125,0.0,0.0,0.0
26781407,21231,0,1.005859375,-0.021484375,0.017578125,-0.00390625,0.0,0.0,0.0
26782657,21232,0,1.0,-0.025390625,0.013671875,-0.01171875,0.0,0.0,0.0
26783909,21233,0,1.001953125,-0.025390625,0.01953125,-0.005859375,0.0,0.0,0.0
26785159,21234,0,1.0078125,-0.021484375,0.01171875,-0.009765625,0.0,0.0,0.0
26786409,21235,0,0.99609375,-0.0234375,0.015625,-0.0078125,0.0,0.0,0.0
26787661,21236,0,1.001953125,-0.0234375,0.013671875,-0.009765625,0.0,0.0,0.0
26788911,21237,0,1.001953125,-0.025390625,0.017578125,-0.0078125,0.0,0.0,0.0
26790161,21238,0,1.001953125,-0.02734375,0.01171875,-0.015625,0.0,0.0,0.0
26791411,21239,0,1.00390625,-0.025390625,0.017578125,-0.0078125,0.0,0.0,0.0
26792663,21240,0,1.0078125,-0.029296875,0.015625,-0.013671875,0.0,0.0,0.0
26793913,21241,0,1.0078125,-0.029296875,0.013671875,-0.015625,0.0,0.0,0.0
26795164,21242,0,1.001953125,-0.029296875,0.01171875,-0.017578125,0.0,0.0,0.0
26796415,21243,0,1.001953125,-0.021484375,0.01953125,-0.001953125,0.0,0.0,0.0
26797666,21244,0,1.001953125,-0.029296875,0.017578125,-0.01171875,0.0,0.0,0.0
26798916,21245,0,0.998046875,-0.02734375,0.01953125,-0.0078125,0.0,0.0,0.0
26800167,21246,0,1.005859375,-0.0234375,0.009765625,-0.013671875,0.0,0.0,0.0
26801417,21247,0,0.998046875,-0.025390625,0.013671875,-0.01171875,0.0,0.0,0.0
26802668,21248,0,0.99609375,-0.025390625,0.015625,-0.009765625,0.0,0.0,0.0
26803920,21249,0,1.005859375,-0.0234375,0.017578125,-0.005859375,0.0,0.0,0.0
26805171,21250,0,1.0078125,-0.02734375,0.01171875,-0.015625,0.0,0.0,0.0
26806421,21251,0,1.0,-0.029296875,0.01953125,-0.009765625,0.0,0.0,0.0
26807672,21252,0,1.005859375,-0.03125,0.015625,-0.015625,0.0,0.0,0.0
26808924,21253,0,1.001953125,-0.029296875,0.013671875,-0.015625,0.0,0.0,0.0
26810174,21254,0,1.001953125,-0.0234375,0.015625,-0.0078125,0.0,0.0,0.0
26811425,21255,0,1.001953125,-0.029296875,0.015625,-0.013671875,0.0,0.0,0.0
26812677,21256,0,1.0,-0.03125,0.015625,-0.015625,0.0,0.0,0.0
26813927,21257,0,1.005859375,-0.03125,0.01953125,-0.01171875,0.0,0.0,0.0
26815177,21258,0,1.001953125,-0.02734375,0.01953125,-0.0078125,0.0,0.0,0.0
26816429,21259,0,1.001953125,-0.029296875,0.021484375,-0.0078125,0.0,0.0,0.0
26817679,21260,0,1.001953125,-0.033203125,0.009765625,-0.0234375,0.0,0.0,0.0
26818931,21261,0,1.0078125,-0.033203125,0.017578125,-0.015625,0.0,0.0,0.0
26820181,21262,0,1.001953125,-0.029296875,0.017578125,-0.01171875,0.0,0.0,0.0
26821431,21263,0,1.005859375,-0.0234375,0.021484375,-0.001953125,0.0,0.0,0.0
26822683,21264,0,1.005859375,-0.025390625,0.015625,-0.009765625,0.0,0.0,0.0
26823933,21265,0,1.00390625,-0.025390625,0.01953125,-0.005859375,0.0,0.0,0.0
26825183,21266,0,1.00390625,-0.0234375,0.021484375,-0.001953125,0.0,0.0,0.0
26826434,21267,0,1.01171875,-0.021484375,0.0078125,-0.013671875,0.0,0.0,0.0
26827685,21268,0,0.99609375,-0.02734375,0.015625,-0.01171875,0.0,0.0,0.0
26828936,21269,0,0.998046875,-0.02734375,0.005859375,-0.021484375,0.0,0.0,0.0
26830186,21270,0,1.0,-0.02734375,0.01953125,-0.0078125,0.0,0.0,0.0
26831437,21271,0,0.99609375,-0.029296875,0.0234375,-0.005859375,0.0,0.0,0.0
26832687,21272,0,0.99609375,-0.029296875,0.021484375,-0.0078125,0.0,0.0,0.0
26833937,21273,0,1.001953125,-0.02734375,0.013671875,-0.013671875,0.0,0.0,0.0
26835188,21274,0,1.001953125,-0.025390625,0.0234375,-0.001953125,0.0,0.0,0.0
26836440,21275,0,1.005859375,-0.021484375,0.015625,-0.005859375,0.0,0.0,0.0
26837690,21276,0,1.001953125,-0.0234375,0.015625,-0.0078125,0.0,0.0,0.0
26838942,21277,0,1.001953125,-0.025390625,0.017578125,-0.0078125,0.0,0.0,0.0
26840193,21278,0,1.001953125,-0.021484375,0.01953125,-0.001953125,0.0,0.0,0.0
26841445,21279,0,1.005859375,-0.025390625,0.015625,-0.009765625,0.0,0.0,0.0
26842695,21280,0,0.998046875,-0.0234375,0.009765625,-0.013671875,0.0,0.0,0.0
26843947,21281,0,0.994140625,-0.0234375,0.01953125,-0.00390625,0.0,0.0,0.0
26845198,21282,0,1.0078125,-0.0234375,0.01171875,-0.01171875,0.0,0.0,0.0
26846450,21283,0,1.005859375,-0.02734375,0.01953125,-0.0078125,0.0,0.0,0.0
26847700,21284,0,1.00390625,-0.025390625,0.01171875,-0.013671875,0.0,0.0,0.0
26848952,21285,0,1.0078125,-0.0234375,0.015625,-0.0078125,0.0,0.0,0.0
26850203,21286,0,1.0078125,-0.021484375,0.009765625,-0.01171875,0.0,0.0,0.0
26851454,21287,0,1.001953125,-0.025390625,0.015625,-0.009765625,0.0,0.0,0.0
26852705,21288,0,1.0,-0.029296875,0.017578125,-0.01171875,0.0,0.0,0.0
26853957,21289,0,1.01171875,-0.0234375,0.021484375,-0.001953125,0.0,0.0,0.0
26855207,21290,0,1.00390625,-0.029296875,0.01953125,-0.009765625,0.0,0.0,0.0
26856459,21291,0,1.0,-0.025390625,0.015625,-0.009765625,0.0,0.0,0.0
26857709,21292,0,1.001953125,-0.03125,0.015625,-0.015625,0.0,0.0,0.0
26858959,21293,0,1.0078125,-0.02734375,0.013671875,-0.013671875,0.0,0.0,0.0
26860209,21294,0,1.00390625,-0.025390625,0.015625,-0.009765625,0.0,0.0,0.0
26861459,21295,0,1.001953125,-0.02734375,0.01171875,-0.015625,0.0,0.0,0.0
26862711,21296,0,0.998046875,-0.0234375,0.009765625,-0.013671875,0.0,0.0,0.0
26863961,21297,0,1.001953125,-0.0234375,0.015625,-0.0078125,0.0,0.0,0.0
26865213,21298,0,1.005859375,-0.02734375,0.01171875,-0.015625,0.0,0.0,0.0
26866464,21299,0,1.00390625,-0.025390625,0.013671875,-0.01171875,0.0,0.0,0.0
26867715,21300,0,1.0078125,-0.029296875,0.01171875,-0.017578125,0.0,0.0,0.0
26868966,21301,0,1.001953125,-0.033203125,0.013671875,-0.01953125,0.0,0.0,0.0
26870216,21302,0,1.00390625,-0.029296875,0.013671875,-0.015625,0.0,0.0,0.0
26871467,21303,0,1.0,-0.02734375,0.017578125,-0.009765625,0.0,0.0,0.0
26872718,21304,0,1.001953125,-0.025390625,0.015625,-0.009765625,0.0,0.0,0.0
26873968,21305,0,1.001953125,-0.02734375,0.013671875,-0.013671875,0.0,0.0,0.0
26875219,21306,0,1.01171875,-0.025390625,0.01953125,-0.005859375,0.0,0.0,0.0
26876470,21307,0,1.009765625,-0.0234375,0.01171875,-0.01171875,0.0,0.0,0.0
26877721,21308,0,1.015625,-0.0234375,0.013671875,-0.009765625,0.0,0.0,0.0
26878971,21309,0,1.001953125,-0.021484375,0.015625,-0.005859375,0.0,0.0,0.0
26880223,21310,0,1.0078125,-0.03125,0.009765625,-0.021484375,0.0,0.0,0.0
26881473,21311,0,1.001953125,-0.02734375,0.01171875,-0.015625,0.0,0.0,0.0
26882723,21312,0,1.005859375,-0.029296875,0.01171875,-0.017578125,0.0,0.0,0.0
26883975,21313,0,1.009765625,-0.02734375,0.017578125,-0.009765625,0.0,0.0,0.0
26885226,21314,0,1.009765625,-0.025390625,0.015625,-0.009765625,0.0,0.0,0.0
26886476,21315,0,1.005859375,-0.0234375,0.01171875,-0.01171875,0.0,0.0,0.0
26887728,21316,0,1.009765625,-0.02734375,0.017578125,-0.009765625,0.0,0.0,0.0
26888979,21317,0,0.998046875,-0.03125,0.01171875,-0.01953125,0.0,0.0,0.0
26890229,21318,0,1.00390625,-0.029296875,0.01953125,-0.009765625,0.0,0.0,0.0
26891481,21319,0,1.0,-0.0234375,0.021484375,-0.001953125,0.0,0.0,0.0
26892731,21320,0,1.005859375,-0.0234375,0.015625,-0.0078125,0.0,0.0,0.0
26893981,21321,0,0.998046875,-0.02734375,0.00390625,-0.0234375,0.0,0.0,0.0
26895232,21322,0,1.001953125,-0.02734375,0.01171875,-0.015625,0.0,0.0,0.0
26896483,21323,0,1.0078125,-0.0234375,0.013671875,-0.009765625,0.0,0.0,0.0
26897734,21324,0,1.00390625,-0.025390625,0.013671875,-0.01171875,0.0,0.0,0.0
26898986,21325,0,1.001953125,-0.0234375,0.017578125,-0.005859375,0.0,0.0,0.0
26900236,21326,0,1.00390625,-0.02734375,0.01953125,-0.0078125,0.0,0.0,0.0
26901486,21327,0,0.994140625,-0.02734375,0.017578125,-0.009765625,0.0,0.0,0.0
26902737,21328,0,1.005859375,-0.0234375,0.0234375,0.0,0.0,0.0,0.0
26903987,21329,0,1.005859375,-0.025390625,0.017578125,-0.0078125,0.0,0.0,0.0
26905238,21330,0,1.0,-0.0234375,0.021484375,-0.001953125,0.0,0.0,0.0
26906489,21331,0,1.00390625,-0.029296875,0.009765625,-0.01953125,0.0,0.0,0.0
26907740,21332,0,0.994140625,-0.02734375,0.015625,-0.01171875,0.0,0.0,0.0
26908991,21333,0,1.0,-0.025390625,0.0078125,-0.017578125,0.0,0.0,0.0
26910241,21334,0,1.0,-0.025390625,0.01171875,-0.013671875,0.0,0.0,0.0
26911492,21335,0,0.998046875,-0.0234375,0.01171875,-0.01171875,0.0,0.0,0.0
26912744,21336,0,0.994140625,-0.025390625,0.017578125,-0.0078125,0.0,0.0,0.0
26913994,21337,0,1.00390625,-0.0234375,0.01953125,-0.00390625,0.0,0.0,0.0
26915245,21338,0,1.005859375,-0.025390625,0.01953125,-0.005859375,0.0,0.0,0.0
26916496,21339,0,1.0078125,-0.02734375,0.01953125,-0.0078125,0.0,0.0,0.0
26917747,21340,0,1.0,-0.02734375,0.015625,-0.01171875,0.0,0.0,0.0
26918998,21341,0,0.994140625,-0.0234375,0.017578125,-0.005859375,0.0,0.0,0.0
26920249,21342,0,1.001953125,-0.021484375,0.017578125,-0.00390625,0.0,0.0,0.0
26921499,21343,0,1.001953125,-0.03125,0.015625,-0.015625,0.0,0.0,0.0
26922751,21344,0,1.009765625,-0.025390625,0.009765625,-0.015625,0.0,0.0,0.0
26924002,21345,0,1.00390625,-0.029296875,0.017578125,-0.01171875,0.0,0.0,0.0
