t_us,frame_id,sensor_id,accX,accY,accZ,acc_sum_YZ,magX,magY,magZ
40881489,32503,0,1.005859375,-0.02734375,0.01953125,-0.0078125,0.0,0.0,0.0
40882740,32504,0,1.005859375,-0.025390625,0.01953125,-0.005859375,0.0,0.0,0.0
40883991,32505,0,1.005859375,-0.029296875,0.017578125,-0.01171875,0.0,0.0,0.0
40885241,32506,0,1.00390625,-0.03125,0.013671875,-0.017578125,0.0,0.0,0.0
40886492,32507,0,1.00390625,-0.03125,0.01953125,-0.01171875,0.0,0.0,0.0
40887744,32508,0,1.001953125,-0.03515625,0.017578125,-0.017578125,0.0,0.0,0.0
40888994,32509,0,1.00390625,-0.0234375,0.021484375,-0.001953125,0.0,0.0,0.0
40890245,32510,0,1.001953125,-0.02734375,0.021484375,-0.005859375,0.0,0.0,0.0
40891496,32511,0,1.0078125,-0.029296875,0.013671875,-0.015625,0.0,0.0,0.0
40892747,32512,0,1.015625,-0.029296875,0.01953125,-0.009765625,0.0,0.0,0.0
40893998,32513,0,1.005859375,-0.02734375,0.021484375,-0.005859375,0.0,0.0,0.0
40895249,32514,0,1.013671875,-0.029296875,0.015625,-0.013671875,0.0,0.0,0.0
40896499,32515,0,1.00390625,-0.02734375,0.021484375,-0.005859375,0.0,0.0,0.0
40897751,32516,0,1.00390625,-0.02734375,0.013671875,-0.013671875,0.0,0.0,0.0
40899002,32517,0,0.998046875,-0.025390625,0.017578125,-0.0078125,0.0,0.0,0.0
40900253,32518,0,0.998046875,-0.02734375,0.01953125,-0.0078125,0.0,0.0,0.0
40901503,32519,0,1.001953125,-0.029296875,0.01953125,-0.009765625,0.0,0.0,0.0
40902755,32520,0,1.005859375,-0.03125,0.021484375,-0.009765625,0.0,0.0,0.0
40904005,32521,0,1.005859375,-0.03125,0.017578125,-0.013671875,0.0,0.0,0.0
40905256,32522,0,1.0078125,-0.02734375,0.015625,-0.01171875,0.0,0.0,0.0
40906506,32523,0,1.0,-0.029296875,0.017578125,-0.01171875,0.0,0.0,0.0
40907757,32524,0,1.005859375,-0.037109375,0.015625,-0.021484375,0.0,0.0,0.0
40909008,32525,0,1.005859375,-0.033203125,0.0234375,-0.009765625,0.0,0.0,0.0
40910258,32526,0,1.0,-0.029296875,0.01953125,-0.009765625,0.0,0.0,0.0
40911508,32527,0,1.001953125,-0.029296875,0.01953125,-0.009765625,0.0,0.0,0.0
40912759,32528,0,1.001953125,-0.02734375,0.01953125,-0.0078125,0.0,0.0,0.0
40914009,32529,0,0.998046875,-0.03515625,0.021484375,-0.013671875,0.0,0.0,0.0
40915259,32530,0,1.00390625,-0.03125,0.025390625,-0.005859375,0.0,0.0,0.0
40916510,32531,0,1.005859375,-0.033203125,0.0234375,-0.009765625,0.0,0.0,0.0
40917762,32532,0,1.0078125,-0.02734375,0.025390625,-0.001953125,0.0,0.0,0.0
40919012,32533,0,1.0,-0.037109375,0.01171875,-0.025390625,0.0,0.0,0.0
40920271,32534,0,0.99609375,-0.03125,0.015625,-0.015625,0.0,0.0,0.0
40921521,32535,0,1.00390625,-0.033203125,0.015625,-0.017578125,0.0,0.0,0.0
40922773,32536,0,1.0078125,-0.037109375,0.0234375,-0.013671875,0.0,0.0,0.0
40924023,32537,0,1.001953125,-0.033203125,0.013671875,-0.01953125,0.0,0.0,0.0
40925274,32538,0,0.998046875,-0.03125,0.01171875,-0.01953125,0.0,0.0,0.0
40926525,32539,0,0.998046875,-0.029296875,0.0234375,-0.005859375,0.0,0.0,0.0
40927776,32540,0,1.00390625,-0.03125,0.017578125,-0.013671875,0.0,0.0,0.0
40929026,32541,0,1.00390625,-0.033203125,0.015625,-0.017578125,0.0,0.0,0.0
40930276,32542,0,1.00390625,-0.033203125,0.017578125,-0.015625,0.0,0.0,0.0
40931527,32543,0,1.005859375,-0.03125,0.013671875,-0.017578125,0.0,0.0,0.0
40932778,32544,0,0.998046875,-0.033203125,0.021484375,-0.01171875,0.0,0.0,0.0
40934029,32545,0,1.001953125,-0.033203125,0.01953125,-0.013671875,0.0,0.0,0.0
40935280,32546,0,1.005859375,-0.033203125,0.013671875,-0.01953125,0.0,0.0,0.0
40936531,32547,0,1.001953125,-0.03515625,0.01953125,-0.015625,0.0,0.0,0.0
40937783,32548,0,1.005859375,-0.02734375,0.01953125,-0.0078125,0.0,0.0,0.0
40939034,32549,0,1.00390625,-0.03125,0.015625,-0.015625,0.0,0.0,0.0
40940286,32550,0,1.0,-0.033203125,0.01953125,-0.013671875,0.0,0.0,0.0
40941537,32551,0,1.00390625,-0.03125,0.021484375,-0.009765625,0.0,0.0,0.0
40942789,32552,0,1.001953125,-0.02734375,0.0234375,-0.00390625,0.0,0.0,0.0
40944039,32553,0,1.0078125,-0.03515625,0.017578125,-0.017578125,0.0,0.0,0.0
40945289,32554,0,0.998046875,-0.03125,0.021484375,-0.009765625,0.0,0.0,0.0
40946541,32555,0,1.005859375,-0.03125,0.0234375,-0.0078125,0.0,0.0,0.0
40947792,32556,0,1.009765625,-0.029296875,0.021484375,-0.0078125,0.0,0.0,0.0
40949044,32557,0,1.01171875,-0.03125,0.025390625,-0.005859375,0.0,0.0,0.0
40950294,32558,0,1.001953125,-0.029296875,0.0234375,-0.005859375,0.0,0.0,0.0
40951544,32559,0,1.00390625,-0.029296875,0.013671875,-0.015625,0.0,0.0,0.0
40952795,32560,0,1.01171875,-0.02734375,0.01953125,-0.0078125,0.0,0.0,0.0
40954045,32561,0,1.001953125,-0.033203125,0.017578125,-0.015625,0.0,0.0,0.0
40955295,32562,0,1.00390625,-0.033203125,0.021484375,-0.01171875,0.0,0.0,0.0
40956546,32563,0,1.001953125,-0.02734375,0.021484375,-0.005859375,0.0,0.0,0.0
40957797,32564,0,1.005859375,-0.033203125,0.017578125,-0.015625,0.0,0.0,0.0
40959048,32565,0,1.0,-0.029296875,0.01953125,-0.009765625,0.0,0.0,0.0
40960299,32566,0,1.00390625,-0.02734375,0.013671875,-0.013671875,0.0,0.0,0.0
40961550,32567,0,1.001953125,-0.033203125,0.017578125,-0.015625,0.0,0.0,0.0
40962800,32568,0,0.998046875,-0.029296875,0.017578125,-0.01171875,0.0,0.0,0.0
40964052,32569,0,1.0,-0.02734375,0.0078125,-0.01953125,0.0,0.0,0.0
40965303,32570,0,1.0,-0.033203125,0.017578125,-0.015625,0.0,0.0,0.0
40966554,32571,0,1.00390625,-0.033203125,0.017578125,-0.015625,0.0,0.0,0.0
40967805,32572,0,0.998046875,-0.033203125,0.013671875,-0.01953125,0.0,0.0,0.0
40969057,32573,0,1.005859375,-0.02734375,0.021484375,-0.005859375,0.0,0.0,0.0
40970308,32574,0,1.001953125,-0.03515625,0.021484375,-0.013671875,0.0,0.0,0.0
40971560,32575,0,1.00390625,-0.03515625,0.017578125,-0.017578125,0.0,0.0,0.0
40972811,32576,0,1.015625,-0.03515625,0.017578125,-0.017578125,0.0,0.0,0.0
40974063,32577,0,1.00390625,-0.029296875,0.009765625,-0.01953125,0.0,0.0,0.0
40975314,32578,0,0.998046875,-0.029296875,0.021484375,-0.0078125,0.0,0.0,0.0
40976565,32579,0,1.005859375,-0.025390625,0.021484375,-0.00390625,0.0,0.0,0.0
40977816,32580,0,1.0,-0.033203125,0.015625,-0.017578125,0.0,0.0,0.0
40979066,32581,0,1.009765625,-0.029296875,0.017578125,-0.01171875,0.0,0.0,0.0
40980318,32582,0,1.005859375,-0.033203125,0.017578125,-0.015625,0.0,0.0,0.0
40981569,32583,0,1.0078125,-0.033203125,0.015625,-0.017578125,0.0,0.0,0.0
40982819,32584,0,1.0,-0.033203125,0.01953125,-0.013671875,0.0,0.0,0.0
40984070,32585,0,1.0,-0.03125,0.01171875,-0.01953125,0.0,0.0,0.0
40985321,32586,0,1.0078125,-0.029296875,0.021484375,-0.0078125,0.0,0.0,0.0
40986572,32587,0,1.005859375,-0.029296875,0.015625,-0.013671875,0.0,0.0,0.0
40987823,32588,0,1.00390625,-0.03125,0.015625,-0.015625,0.0,0.0,0.0
40989074,32589,0,1.005859375,-0.03125,0.015625,-0.015625,0.0,0.0,0.0
40990325,32590,0,1.00390625,-0.029296875,0.015625,-0.013671875,0.0,0.0,0.0
40991575,32591,0,1.009765625,-0.033203125,0.015625,-0.017578125,0.0,0.0,0.0
40992825,32592,0,0.99609375,-0.029296875,0.013671875,-0.015625,0.0,0.0,0.0
40994076,32593,0,1.00390625,-0.033203125,0.015625,-0.017578125,0.0,0.0,0.0
40995326,32594,0,1.00390625,-0.03125,0.017578125,-0.013671875,0.0,0.0,0.0
40996577,32595,0,1.00390625,-0.02734375,0.017578125,-0.009765625,0.0,0.0,0.0
40997828,32596,0,1.005859375,-0.029296875,0.017578125,-0.01171875,0.0,0.0,0.0
40999078,32597,0,0.998046875,-0.0234375,0.01171875,-0.01171875,0.0,0.0,0.0
41000329,32598,0,1.005859375,-0.033203125,0.01953125,-0.013671875,0.0,0.0,0.0
41001581,32599,0,1.01171875,-0.02734375,0.021484375,-0.005859375,0.0,0.0,0.0
41002833,32600,0,1.0078125,-0.02734375,0.021484375,-0.005859375,0.0,0.0,0.0
41004083,32601,0,1.0,-0.033203125,0.017578125,-0.015625,0.0,0.0,0.0
41005333,32602,0,1.01171875,-0.029296875,0.0078125,-0.021484375,0.0,0.0,0.0
41006584,32603,0,1.001953125,-0.029296875,0.017578125,-0.01171875,0.0,0.0,0.0
41007835,32604,0,0.998046875,-0.02734375,0.021484375,-0.005859375,0.0,0.0,0.0
41009085,32605,0,1.009765625,-0.029296875,0.025390625,-0.00390625,0.0,0.0,0.0
41010336,32606,0,1.005859375,-0.03125,0.015625,-0.015625,0.0,0.0,0.0
41011587,32607,0,1.0078125,-0.037109375,0.021484375,-0.015625,0.0,0.0,0.0
41012838,32608,0,1.0,-0.02734375,0.01953125,-0.0078125,0.0,0.0,0.0
41014090,32609,0,0.998046875,-0.03515625,0.017578125,-0.017578125,0.0,0.0,0.0
41015341,32610,0,1.001953125,-0.03125,0.015625,-0.015625,0.0,0.0,0.0
41016592,32611,0,1.005859375,-0.029296875,0.01953125,-0.009765625,0.0,0.0,0.0
41017844,32612,0,1.0,-0.033203125,0.01953125,-0.013671875,0.0,0.0,0.0
41019095,32613,0,1.0,-0.03125,0.021484375,-0.009765625,0.0,0.0,0.0
41020346,32614,0,1.00390625,-0.029296875,0.015625,-0.013671875,0.0,0.0,0.0
41021597,32615,0,1.009765625,-0.03125,0.01953125,-0.01171875,0.0,0.0,0.0
41022849,32616,0,1.0078125,-0.02734375,0.01953125,-0.0078125,0.0,0.0,0.0
41024099,32617,0,0.998046875,-0.03125,0.01953125,-0.01171875,0.0,0.0,0.0
41025351,32618,0,1.0,-0.03125,0.021484375,-0.009765625,0.0,0.0,0.0
41026602,32619,0,1.0,-0.033203125,0.017578125,-0.015625,0.0,0.0,0.0
41027854,32620,0,1.009765625,-0.03515625,0.013671875,-0.021484375,0.0,0.0,0.0
41029104,32621,0,1.0078125,-0.033203125,0.0234375,-0.009765625,0.0,0.0,0.0
41030354,32622,0,0.994140625,-0.033203125,0.013671875,-0.01953125,0.0,0.0,0.0
41031605,32623,0,1.005859375,-0.03125,0.015625,-0.015625,0.0,0.0,0.0
41032855,32624,0,1.0,-0.03515625,0.01953125,-0.015625,0.0,0.0,0.0
41034107,32625,0,1.0078125,-0.03515625,0.013671875,-0.021484375,0.0,0.0,0.0
41035358,32626,0,1.001953125,-0.033203125,0.017578125,-0.015625,0.0,0.0,0.0
41036609,32627,0,1.001953125,-0.029296875,0.017578125,-0.01171875,0.0,0.0,0.0
41037859,32628,0,1.005859375,-0.029296875,0.021484375,-0.0078125,0.0,0.0,0.0
41039111,32629,0,1.001953125,-0.033203125,0.017578125,-0.015625,0.0,0.0,0.0
41040362,32630,0,1.005859375,-0.029296875,0.013671875,-0.015625,0.0,0.0,0.0
41041613,32631,0,1.0,-0.029296875,0.0234375,-0.005859375,0.0,0.0,0.0
41042865,32632,0,1.0,-0.033203125,0.021484375,-0.01171875,0.0,0.0,0.0
41044115,32633,0,1.0,-0.03125,0.017578125,-0.013671875,0.0,0.0,0.0
41045365,32634,0,1.001953125,-0.029296875,0.017578125,-0.01171875,0.0,0.0,0.0
41046617,32635,0,1.001953125,-0.03125,0.01953125,-0.01171875,0.0,0.0,0.0
41047867,32636,0,1.009765625,-0.03125,0.0234375,-0.0078125,0.0,0.0,0.0
41049118,32637,0,1.005859375,-0.02734375,0.01953125,-0.0078125,0.0,0.0,0.0
41050369,32638,0,1.001953125,-0.03125,0.021484375,-0.009765625,0.0,0.0,0.0
41051620,32639,0,1.009765625,-0.033203125,0.01953125,-0.013671875,0.0,0.0,0.0
41052871,32640,0,1.0078125,-0.03125,0.01953125,-0.01171875,0.0,0.0,0.0
41054123,32641,0,1.0078125,-0.03125,0.01171875,-0.01953125,0.0,0.0,0.0
41055374,32642,0,1.005859375,-0.033203125,0.017578125,-0.015625,0.0,0.0,0.0
41056624,32643,0,1.001953125,-0.029296875,0.01953125,-0.009765625,0.0,0.0,0.0
41057875,32644,0,1.00390625,-0.029296875,0.015625,-0.013671875,0.0,0.0,0.0
41059125,32645,0,1.0078125,-0.033203125,0.015625,-0.017578125,0.0,0.0,0.0
41060375,32646,0,1.00390625,-0.033203125,0.015625,-0.017578125,0.0,0.0,0.0
41061626,32647,0,1.005859375,-0.03125,0.015625,-0.015625,0.0,0.0,0.0
41062877,32648,0,1.00390625,-0.03125,0.015625,-0.015625,0.0,0.0,0.0
41064129,32649,0,1.001953125,-0.03125,0.013671875,-0.017578125,0.0,0.0,0.0
41065380,32650,0,1.0,-0.03125,0.017578125,-0.013671875,0.0,0.0,0.0
41066630,32651,0,1.00390625,-0.03125,0.01953125,-0.01171875,0.0,0.0,0.0
41067881,32652,0,0.998046875,-0.03125,0.01171875,-0.01953125,0.0,0.0,0.0
41069133,32653,0,1.00390625,-0.02734375,0.015625,-0.01171875,0.0,0.0,0.0
41070384,32654,0,1.0078125,-0.0234375,0.013671875,-0.009765625,0.0,0.0,0.0
41071634,32655,0,1.001953125,-0.033203125,0.01171875,-0.021484375,0.0,0.0,0.0
41072886,32656,0,1.005859375,-0.029296875,0.01953125,-0.009765625,0.0,0.0,0.0
41074136,32657,0,1.001953125,-0.03515625,0.017578125,-0.017578125,0.0,0.0,0.0
41075386,32658,0,1.00390625,-0.03515625,0.021484375,-0.013671875,0.0,0.0,0.0
41076638,32659,0,1.005859375,-0.03125,0.01953125,-0.01171875,0.0,0.0,0.0
41077888,32660,0,1.001953125,-0.02734375,0.021484375,-0.005859375,0.0,0.0,0.0
41079139,32661,0,1.0,-0.033203125,0.015625,-0.017578125,0.0,0.0,0.0
41080391,32662,0,1.0,-0.03125,0.01953125,-0.01171875,0.0,0.0,0.0
41081641,32663,0,1.00390625,-0.02734375,0.01953125,-0.0078125,0.0,0.0,0.0
41082892,32664,0,1.013671875,-0.033203125,0.01171875,-0.021484375,0.0,0.0,0.0
41084142,32665,0,1.01171875,-0.02734375,0.01171875,-0.015625,0.0,0.0,0.0
41085393,32666,0,1.00390625,-0.03125,0.015625,-0.015625,0.0,0.0,0.0
41086645,32667,0,1.001953125,-0.029296875,0.01953125,-0.009765625,0.0,0.0,0.0
41087895,32668,0,1.0,-0.03125,0.021484375,-0.009765625,0.0,0.0,0.0
41089147,32669,0,1.001953125,-0.03125,0.01953125,-0.01171875,0.0,0.0,0.0
41090397,32670,0,1.0,-0.03125,0.0234375,-0.0078125,0.0,0.0,0.0
41091649,32671,0,1.005859375,-0.029296875,0.015625,-0.013671875,0.0,0.0,0.0
41092899,32672,0,0.99609375,-0.033203125,0.015625,-0.017578125,0.0,0.0,0.0
41094149,32673,0,1.0078125,-0.03125,0.015625,-0.015625,0.0,0.0,0.0
41095399,32674,0,1.0078125,-0.029296875,0.021484375,-0.0078125,0.0,0.0,0.0
41096650,32675,0,0.998046875,-0.03125,0.0234375,-0.0078125,0.0,0.0,0.0
41097902,32676,0,1.00390625,-0.03125,0.015625,-0.015625,0.0,0.0,0.0
41099153,32677,0,1.0078125,-0.03125,0.01953125,-0.01171875,0.0,0.0,0.0
41100404,32678,0,1.0078125,-0.03125,0.01953125,-0.01171875,0.0,0.0,0.0
41101654,32679,0,1.005859375,-0.03125,0.017578125,-0.013671875,0.0,0.0,0.0
41102904,32680,0,1.005859375,-0.03515625,0.01953125,-0.015625,0.0,0.0,0.0
41104155,32681,0,1.005859375,-0.033203125,0.015625,-0.017578125,0.0,0.0,0.0
41105407,32682,0,1.001953125,-0.03515625,0.01171875,-0.0234375,0.0,0.0,0.0
41106657,32683,0,1.0078125,-0.02734375,0.009765625,-0.017578125,0.0,0.0,0.0
41107909,32684,0,1.013671875,-0.029296875,0.01171875,-0.017578125,0.0,0.0,0.0
41109159,32685,0,0.99609375,-0.033203125,0.015625,-0.017578125,0.0,0.0,0.0
41110409,32686,0,1.00390625,-0.033203125,0.021484375,-0.01171875,0.0,0.0,0.0
41111661,32687,0,1.001953125,-0.029296875,0.015625,-0.013671875,0.0,0.0,0.0
41112911,32688,0,1.0078125,-0.029296875,0.01953125,-0.009765625,0.0,0.0,0.0
41114161,32689,0,1.00390625,-0.025390625,0.01953125,-0.005859375,0.0,0.0,0.0
41115411,32690,0,1.00390625,-0.029296875,0.015625,-0.013671875,0.0,0.0,0.0
41116663,32691,0,1.001953125,-0.033203125,0.017578125,-0.015625,0.0,0.0,0.0
41117913,32692,0,1.001953125,-0.03125,0.017578125,-0.013671875,0.0,0.0,0.0
41119164,32693,0,1.001953125,-0.029296875,0.01171875,-0.017578125,0.0,0.0,0.0
41120415,32694,0,1.005859375,-0.03515625,0.01953125,-0.015625,0.0,0.0,0.0
41121666,32695,0,1.001953125,-0.033203125,0.01953125,-0.013671875,0.0,0.0,0.0
41122916,32696,0,1.0078125,-0.033203125,0.017578125,-0.015625,0.0,0.0,0.0
41124167,32697,0,1.005859375,-0.029296875,0.017578125,-0.01171875,0.0,0.0,0.0
41125417,32698,0,0.99609375,-0.029296875,0.01953125,-0.009765625,0.0,0.0,0.0
41126668,32699,0,1.0078125,-0.033203125,0.017578125,-0.015625,0.0,0.0,0.0
41127920,32700,0,1.0,-0.03125,0.013671875,-0.017578125,0.0,0.0,0.0
41129171,32701,0,1.00390625,-0.02734375,0.01953125,-0.0078125,0.0,0.0,0.0
41130421,32702,0,1.0078125,-0.029296875,0.021484375,-0.0078125,0.0,0.0,0.0
41131672,32703,0,1.005859375,-0.03515625,0.01171875,-0.0234375,0.0,0.0,0.0
41132924,32704,0,1.017578125,-0.03125,0.013671875,-0.017578125,0.0,0.0,0.0
41134174,32705,0,0.998046875,-0.03125,0.01953125,-0.01171875,0.0,0.0,0.0
41135425,32706,0,1.0,-0.029296875,0.017578125,-0.01171875,0.0,0.0,0.0
41136677,32707,0,1.00390625,-0.025390625,0.021484375,-0.00390625,0.0,0.0,0.0
41137927,32708,0,1.001953125,-0.03125,0.0234375,-0.0078125,0.0,0.0,0.0
41139177,32709,0,1.0078125,-0.02734375,0.021484375,-0.005859375,0.0,0.0,0.0
41140429,32710,0,1.009765625,-0.029296875,0.01953125,-0.009765625,0.0,0.0,0.0
41141679,32711,0,1.001953125,-0.03125,0.021484375,-0.009765625,0.0,0.0,0.0
41142931,32712,0,1.0,-0.029296875,0.01953125,-0.009765625,0.0,0.0,0.0
41144181,32713,0,0.998046875,-0.029296875,0.015625,-0.013671875,0.0,0.0,0.0
41145431,32714,0,1.0,-0.03125,0.017578125,-0.013671875,0.0,0.0,0.0
41146683,32715,0,1.001953125,-0.03125,0.021484375,-0.009765625,0.0,0.0,0.0
41147933,32716,0,1.001953125,-0.033203125,0.01953125,-0.013671875,0.0,0.0,0.0
41149183,32717,0,1.005859375,-0.02734375,0.017578125,-0.009765625,0.0,0.0,0.0
41150434,32718,0,1.0,-0.033203125,0.013671875,-0.01953125,0.0,0.0,0.0
41151685,32719,0,1.005859375,-0.029296875,0.01953125,-0.009765625,0.0,0.0,0.0
41152936,32720,0,1.005859375,-0.029296875,0.01953125,-0.009765625,0.0,0.0,0.0
41154186,32721,0,1.005859375,-0.033203125,0.021484375,-0.01171875,0.0,0.0,0.0
41155437,32722,0,0.998046875,-0.03125,0.01953125,-0.01171875,0.0,0.0,0.0
41156687,32723,0,1.0078125,-0.03125,0.013671875,-0.017578125,0.0,0.0,0.0
41157937,32724,0,1.0078125,-0.029296875,0.01953125,-0.009765625,0.0,0.0,0.0
41159188,32725,0,1.001953125,-0.033203125,0.017578125,-0.015625,0.0,0.0,0.0
41160440,32726,0,1.0078125,-0.03125,0.025390625,-0.005859375,0.0,0.0,0.0
41161690,32727,0,1.005859375,-0.03125,0.01953125,-0.01171875,0.0,0.0,0.0
41162942,32728,0,1.005859375,-0.033203125,0.009765625,-0.0234375,0.0,0.0,0.0
41164193,32729,0,1.0,-0.029296875,0.017578125,-0.01171875,0.0,0.0,0.0
41165445,32730,0,1.00390625,-0.02734375,0.015625,-0.01171875,0.0,0.0,0.0
41166695,32731,0,0.994140625,-0.029296875,0.01953125,-0.009765625,0.0,0.0,0.0
41167947,32732,0,1.001953125,-0.033203125,0.01953125,-0.013671875,0.0,0.0,0.0
41169198,32733,0,1.0,-0.029296875,0.015625,-0.013671875,0.0,0.0,0.0
41170450,32734,0,1.009765625,-0.02734375,0.013671875,-0.013671875,0.0,0.0,0.0
41171700,32735,0,1.001953125,-0.03125,0.015625,-0.015625,0.0,0.0,0.0
41172952,32736,0,1.005859375,-0.03125,0.01953125,-0.01171875,0.0,0.0,0.0
41174203,32737,0,1.001953125,-0.03125,0.017578125,-0.013671875,0.0,0.0,0.0
41175454,32738,0,1.0078125,-0.03125,0.01953125,-0.01171875,0.0,0.0,0.0
41176705,32739,0,1.0,-0.029296875,0.01953125,-0.009765625,0.0,0.0,0.0
41177957,32740,0,1.001953125,-0.033203125,0.01953125,-0.013671875,0.0,0.0,0.0
41179207,32741,0,1.001953125,-0.03125,0.015625,-0.015625,0.0,0.0,0.0
41180459,32742,0,1.00390625,-0.03125,0.017578125,-0.013671875,0.0,0.0,0.0
41181709,32743,0,1.00390625,-0.03125,0.015625,-0.015625,0.0,0.0,0.0
41182959,32744,0,1.0,-0.029296875,0.01953125,-0.009765625,0.0,0.0,0.0
41184209,32745,0,1.0,-0.029296875,0.0234375,-0.005859375,0.0,0.0,0.0
41185459,32746,0,0.99609375,-0.029296875,0.01953125,-0.009765625,0.0,0.0,0.0
41186711,32747,0,1.0,-0.037109375,0.017578125,-0.01953125,0.0,0.0,0.0
41187961,32748,0,0.994140625,-0.03125,0.0234375,-0.0078125,0.0,0.0,0.0
41189213,32749,0,1.005859375,-0.03515625,0.0234375,-0.01171875,0.0,0.0,0.0
41190464,32750,0,1.00390625,-0.025390625,0.013671875,-0.01171875,0.0,0.0,0.0
41191715,32751,0,1.0078125,-0.033203125,0.01953125,-0.013671875,0.0,0.0,0.0
41192966,32752,0,1.00390625,-0.02734375,0.017578125,-0.009765625,0.0,0.0,0.0
41194216,32753,0,1.0078125,-0.033203125,0.017578125,-0.015625,0.0,0.0,0.0
41195467,32754,0,1.00390625,-0.02734375,0.015625,-0.01171875,0.0,0.0,0.0
41196718,32755,0,1.0078125,-0.029296875,0.017578125,-0.01171875,0.0,0.0,0.0
41197968,32756,0,1.00390625,-0.02734375,0.01953125,-0.0078125,0.0,0.0,0.0
41199219,32757,0,1.0,-0.03125,0.021484375,-0.009765625,0.0,0.0,0.0
41200470,32758,0,1.001953125,-0.029296875,0.017578125,-0.01171875,0.0,0.0,0.0
41201721,32759,0,1.00390625,-0.02734375,0.017578125,-0.009765625,0.0,0.0,0.0
41202971,32760,0,1.001953125,-0.03125,0.01953125,-0.01171875,0.0,0.0,0.0
41204223,32761,0,1.00390625,-0.033203125,0.021484375,-0.01171875,0.0,0.0,0.0
41205473,32762,0,1.00390625,-0.03125,0.021484375,-0.009765625,0.0,0.0,0.0
41206723,32763,0,0.998046875,-0.029296875,0.01953125,-0.009765625,0.0,0.0,0.0
41207975,32764,0,1.0,-0.02734375,0.021484375,-0.005859375,0.0,0.0,0.0
41209226,32765,0,1.009765625,-0.029296875,0.015625,-0.013671875,0.0,0.0,0.0
41210476,32766,0,1.009765625,-0.02734375,0.01953125,-0.0078125,0.0,0.0,0.0
41211728,32767,0,1.00390625,-0.033203125,0.017578125,-0.015625,0.0,0.0,0.0
41212979,32768,0,1.005859375,-0.03125,0.009765625,-0.021484375,0.0,0.0,0.0
41214229,32769,0,1.009765625,-0.03125,0.009765625,-0.021484375,0.0,0.0,0.0
41215481,32770,0,1.001953125,-0.033203125,0.015625,-0.017578125,0.0,0.0,0.0
41216731,32771,0,1.00390625,-0.0234375,0.015625,-0.0078125,0.0,0.0,0.0
41217981,32772,0,1.0,-0.03125,0.025390625,-0.005859375,0.0,0.0,0.0
41219232,32773,0,0.994140625,-0.033203125,0.01953125,-0.013671875,0.0,0.0,0.0
41220483,32774,0,1.00390625,-0.029296875,0.025390625,-0.00390625,0.0,0.0,0.0
41221734,32775,0,1.0,-0.029296875,0.017578125,-0.01171875,0.0,0.0,0.0
41222986,32776,0,1.0078125,-0.02734375,0.0234375,-0.00390625,0.0,0.0,0.0
41224236,32777,0,1.005859375,-0.02734375,0.0234375,-0.00390625,0.0,0.0,0.0
41225486,32778,0,1.001953125,-0.02734375,0.015625,-0.01171875,0.0,0.0,0.0
41226737,32779,0,0.99609375,-0.033203125,0.017578125,-0.015625,0.0,0.0,0.0
41227987,32780,0,1.001953125,-0.02734375,0.021484375,-0.005859375,0.0,0.0,0.0
41229238,32781,0,1.0078125,-0.033203125,0.01953125,-0.013671875,0.0,0.0,0.0
41230489,32782,0,1.001953125,-0.033203125,0.013671875,-0.01953125,0.0,0.0,0.0
41231740,32783,0,1.005859375,-0.02734375,0.017578125,-0.009765625,0.0,0.0,0.0
41232991,32784,0,1.001953125,-0.029296875,0.013671875,-0.015625,0.0,0.0,0.0
41234241,32785,0,1.005859375,-0.02734375,0.015625,-0.01171875,0.0,0.0,0.0
41235492,32786,0,1.001953125,-0.03125,0.017578125,-0.013671875,0.0,0.0,0.0
41236744,32787,0,1.0078125,-0.029296875,0.017578125,-0.01171875,0.0,0.0,0.0
41237994,32788,0,0.998046875,-0.02734375,0.01953125,-0.0078125,0.0,0.0,0.0
41239245,32789,0,1.005859375,-0.029296875,0.01953125,-0.009765625,0.0,0.0,0.0
41240496,32790,0,1.017578125,-0.02734375,0.013671875,-0.013671875,0.0,0.0,0.0
41241747,32791,0,1.01171875,-0.033203125,0.015625,-0.017578125,0.0,0.0,0.0
41242998,32792,0,1.01171875,-0.02734375,0.013671875,-0.013671875,0.0,0.0,0.0
41244249,32793,0,1.017578125,-0.025390625,0.017578125,-0.0078125,0.0,0.0,0.0
41245499,32794,0,0.99609375,-0.029296875,0.021484375,-0.0078125,0.0,0.0,0.0
41246751,32795,0,1.0,-0.033203125,0.017578125,-0.015625,0.0,0.0,0.0
41248002,32796,0,0.998046875,-0.033203125,0.015625,-0.017578125,0.0,0.0,0.0
41249253,32797,0,0.998046875,-0.029296875,0.01953125,-0.009765625,0.0,0.0,0.0
41250503,32798,0,1.0078125,-0.03125,0.021484375,-0.009765625,0.0,0.0,0.0
41251755,32799,0,1.005859375,-0.029296875,0.015625,-0.013671875,0.0,0.0,0.0
41253005,32800,0,1.0078125,-0.033203125,0.015625,-0.017578125,0.0,0.0,0.0
41254256,32801,0,1.001953125,-0.029296875,0.017578125,-0.01171875,0.0,0.0,0.0
41255506,32802,0,1.001953125,-0.029296875,0.017578125,-0.01171875,0.0,0.0,0.0
41256757,32803,0,1.00390625,-0.03515625,0.021484375,-0.013671875,0.0,0.0,0.0
41258008,32804,0,1.00390625,-0.03125,0.015625,-0.015625,0.0,0.0,0.0
41259258,32805,0,1.0,-0.03515625,0.013671875,-0.021484375,0.0,0.0,0.0
41260508,32806,0,1.001953125,-0.033203125,0.0234375,-0.009765625,0.0,0.0,0.0
41261759,32807,0,1.005859375,-0.03125,0.0234375,-0.0078125,0.0,0.0,0.0
41263009,32808,0,1.00390625,-0.03125,0.021484375,-0.009765625,0.0,0.0,0.0
41264259,32809,0,1.001953125,-0.033203125,0.015625,-0.017578125,0.0,0.0,0.0
41265510,32810,0,0.998046875,-0.029296875,0.021484375,-0.0078125,0.0,0.0,0.0
41266762,32811,0,0.99609375,-0.033203125,0.017578125,-0.015625,0.0,0.0,0.0
41268012,32812,0,0.99609375,-0.03125,0.021484375,-0.009765625,0.0,0.0,0.0
41269271,32813,0,1.015625,-0.037109375,0.01953125,-0.017578125,0.0,0.0,0.0
41270521,32814,0,1.0,-0.029296875,0.021484375,-0.0078125,0.0,0.0,0.0
41271773,32815,0,0.99609375,-0.02734375,0.01171875,-0.015625,0.0,0.0,0.0
41273023,32816,0,1.00390625,-0.033203125,0.017578125,-0.015625,0.0,0.0,0.0
41274274,32817,0,1.0078125,-0.03515625,0.015625,-0.01953125,0.0,0.0,0.0
41275525,32818,0,1.001953125,-0.03125,0.017578125,-0.013671875,0.0,0.0,0.0
41276776,32819,0,0.99609375,-0.029296875,0.021484375,-0.0078125,0.0,0.0,0.0
41278026,32820,0,1.005859375,-0.02734375,0.017578125,-0.009765625,0.0,0.0,0.0
41279276,32821,0,0.998046875,-0.029296875,0.021484375,-0.0078125,0.0,0.0,0.0
41280527,32822,0,1.00390625,-0.029296875,0.021484375,-0.0078125,0.0,0.0,0.0
41281778,32823,0,1.00390625,-0.03125,0.017578125,-0.013671875,0.0,0.0,0.0
41283029,32824,0,1.005859375,-0.03515625,0.01953125,-0.015625,0.0,0.0,0.0
41284280,32825,0,1.00390625,-0.033203125,0.01953125,-0.013671875,0.0,0.0,0.0
41285531,32826,0,1.005859375,-0.029296875,0.01953125,-0.009765625,0.0,0.0,0.0
41286783,32827,0,1.00390625,-0.033203125,0.015625,-0.017578125,0.0,0.0,0.0
41288034,32828,0,1.0078125,-0.033203125,0.021484375,-0.01171875,0.0,0.0,0.0
41289286,32829,0,1.005859375,-0.033203125,0.013671875,-0.01953125,0.0,0.0,0.0
41290537,32830,0,1.001953125,-0.02734375,0.01953125,-0.0078125,0.0,0.0,0.0
41291789,32831,0,1.001953125,-0.025390625,0.021484375,-0.00390625,0.0,0.0,0.0
41293039,32832,0,1.0,-0.03125,0.01171875,-0.01953125,0.0,0.0,0.0
41294289,32833,0,1.0078125,-0.03515625,0.01171875,-0.0234375,0.0,0.0,0.0
41295541,32834,0,1.00390625,-0.03515625,0.0234375,-0.01171875,0.0,0.0,0.0
41296792,32835,0,1.0078125,-0.03125,0.01953125,-0.01171875,0.0,0.0,0.0
41298044,32836,0,1.00390625,-0.025390625,0.017578125,-0.0078125,0.0,0.0,0.0
41299294,32837,0,0.99609375,-0.02734375,0.015625,-0.01171875,0.0,0.0,0.0
41300544,32838,0,0.990234375,-0.03125,0.021484375,-0.009765625,0.0,0.0,0.0
41301795,32839,0,1.005859375,-0.02734375,0.01953125,-0.0078125,0.0,0.0,0.0
41303045,32840,0,1.0078125,-0.029296875,0.015625,-0.013671875,0.0,0.0,0.0
41304295,32841,0,1.005859375,-0.033203125,0.017578125,-0.015625,0.0,0.0,0.0
41305546,32842,0,1.005859375,-0.03125,0.017578125,-0.013671875,0.0,0.0,0.0
41306797,32843,0,1.005859375,-0.029296875,0.009765625,-0.01953125,0.0,0.0,0.0
41308048,32844,0,1.005859375,-0.029296875,0.015625,-0.013671875,0.0,0.0,0.0
41309299,32845,0,1.0078125,-0.029296875,0.017578125,-0.01171875,0.0,0.0,0.0
41310550,32846,0,1.0,-0.029296875,0.021484375,-0.0078125,0.0,0.0,0.0
41311800,32847,0,1.0,-0.02734375,0.01171875,-0.015625,0.0,0.0,0.0
41313052,32848,0,1.001953125,-0.03125,0.01953125,-0.01171875,0.0,0.0,0.0
41314303,32849,0,0.998046875,-0.033203125,0.013671875,-0.01953125,0.0,0.0,0.0
41315554,32850,0,1.005859375,-0.03125,0.017578125,-0.013671875,0.0,0.0,0.0
41316805,32851,0,1.0,-0.025390625,0.017578125,-0.0078125,0.0,0.0,0.0
41318057,32852,0,1.00390625,-0.03125,0.01953125,-0.01171875,0.0,0.0,0.0
41319308,32853,0,1.0078125,-0.02734375,0.015625,-0.01171875,0.0,0.0,0.0
41320560,32854,0,1.005859375,-0.029296875,0.02734375,-0.001953125,0.0,0.0,0.0
41321811,32855,0,1.001953125,-0.02734375,0.015625,-0.01171875,0.0,0.0,0.0
41323063,32856,0,1.0078125,-0.03515625,0.017578125,-0.017578125,0.0,0.0,0.0
41324314,32857,0,0.9921875,-0.03125,0.021484375,-0.009765625,0.0,0.0,0.0
41325565,32858,0,1.013671875,-0.029296875,0.021484375,-0.0078125,0.0,0.0,0.0
41326816,32859,0,1.0,-0.03515625,0.017578125,-0.017578125,0.0,0.0,0.0
41328066,32860,0,1.005859375,-0.02734375,0.021484375,-0.005859375,0.0,0.0,0.0
41329318,32861,0,1.00390625,-0.029296875,0.017578125,-0.01171875,0.0,0.0,0.0
41330569,32862,0,1.00390625,-0.03125,0.015625,-0.015625,0.0,0.0,0.0
41331819,32863,0,1.005859375,-0.03125,0.01953125,-0.01171875,0.0,0.0,0.0
41333070,32864,0,1.005859375,-0.03125,0.017578125,-0.013671875,0.0,0.0,0.0
41334321,32865,0,1.0078125,-0.03125,0.017578125,-0.013671875,0.0,0.0,0.0
41335572,32866,0,1.001953125,-0.03515625,0.01953125,-0.015625,0.0,0.0,0.0
41336823,32867,0,1.005859375,-0.02734375,0.021484375,-0.005859375,0.0,0.0,0.0
41338074,32868,0,1.001953125,-0.03125,0.021484375,-0.009765625,0.0,0.0,0.0
41339325,32869,0,1.001953125,-0.029296875,0.017578125,-0.01171875,0.0,0.0,0.0
41340575,32870,0,1.00390625,-0.029296875,0.017578125,-0.01171875,0.0,0.0,0.0
41341825,32871,0,1.001953125,-0.029296875,0.021484375,-0.0078125,0.0,0.0,0.0
41343076,32872,0,1.00390625,-0.029296875,0.021484375,-0.0078125,0.0,0.0,0.0
41344326,32873,0,1.00390625,-0.029296875,0.01171875,-0.017578125,0.0,0.0,0.0
41345577,32874,0,1.013671875,-0.02734375,0.015625,-0.01171875,0.0,0.0,0.0
41346828,32875,0,1.0,-0.03515625,0.013671875,-0.021484375,0.0,0.0,0.0
41348078,32876,0,1.0078125,-0.02734375,0.015625,-0.01171875,0.0,0.0,0.0
41349329,32877,0,1.009765625,-0.025390625,0.021484375,-0.00390625,0.0,0.0,0.0
41350581,32878,0,1.005859375,-0.03125,0.01171875,-0.01953125,0.0,0.0,0.0
41351833,32879,0,1.00390625,-0.029296875,0.021484375,-0.0078125,0.0,0.0,0.0
41353083,32880,0,1.001953125,-0.033203125,0.021484375,-0.01171875,0.0,0.0,0.0
41354333,32881,0,1.001953125,-0.03515625,0.013671875,-0.021484375,0.0,0.0,0.0
41355584,32882,0,0.99609375,-0.02734375,0.013671875,-0.013671875,0.0,0.0,0.0
41356835,32883,0,1.0078125,-0.03515625,0.015625,-0.01953125,0.0,0.0,0.0
41358085,32884,0,1.005859375,-0.029296875,0.021484375,-0.0078125,0.0,0.0,0.0
41359336,32885,0,1.0,-0.02734375,0.01171875,-0.015625,0.0,0.0,0.0
41360587,32886,0,1.001953125,-0.02734375,0.01953125,-0.0078125,0.0,0.0,0.0
41361838,32887,0,0.99609375,-0.029296875,0.017578125,-0.01171875,0.0,0.0,0.0
41363090,32888,0,0.998046875,-0.029296875,0.01953125,-0.009765625,0.0,0.0,0.0
41364341,32889,0,1.0,-0.02734375,0.01171875,-0.015625,0.0,0.0,0.0
41365592,32890,0,1.001953125,-0.025390625,0.01953125,-0.005859375,0.0,0.0,0.0
41366844,32891,0,1.0078125,-0.02734375,0.015625,-0.01171875,0.0,0.0,0.0
41368095,32892,0,1.0,-0.02734375,0.01953125,-0.0078125,0.0,0.0,0.0
41369346,32893,0,1.005859375,-0.03125,0.01953125,-0.01171875,0.0,0.0,0.0
41370597,32894,0,1.00390625,-0.03125,0.01953125,-0.01171875,0.0,0.0,0.0
41371849,32895,0,1.0,-0.029296875,0.00390625,-0.025390625,0.0,0.0,0.0
41373099,32896,0,1.005859375,-0.033203125,0.01953125,-0.013671875,0.0,0.0,0.0
41374351,32897,0,1.013671875,-0.02734375,0.021484375,-0.005859375,0.0,0.0,0.0
41375602,32898,0,1.00390625,-0.02734375,0.021484375,-0.005859375,0.0,0.0,0.0
41376854,32899,0,1.00390625,-0.03125,0.013671875,-0.017578125,0.0,0.0,0.0
41378104,32900,0,1.0078125,-0.0390625,0.015625,-0.0234375,0.0,0.0,0.0
41379354,32901,0,1.01171875,-0.03515625,0.015625,-0.01953125,0.0,0.0,0.0
41380605,32902,0,1.005859375,-0.03125,0.017578125,-0.013671875,0.0,0.0,0.0
41381855,32903,0,1.0078125,-0.029296875,0.01953125,-0.009765625,0.0,0.0,0.0
41383107,32904,0,1.005859375,-0.029296875,0.021484375,-0.0078125,0.0,0.0,0.0
41384358,32905,0,1.00390625,-0.03125,0.01953125,-0.01171875,0.0,0.0,0.0
41385609,32906,0,1.00390625,-0.029296875,0.015625,-0.013671875,0.0,0.0,0.0
41386859,32907,0,1.001953125,-0.03125,0.021484375,-0.009765625,0.0,0.0,0.0
41388111,32908,0,0.998046875,-0.03125,0.01953125,-0.01171875,0.0,0.0,0.0
41389362,32909,0,1.00390625,-0.033203125,0.017578125,-0.015625,0.0,0.0,0.0
41390613,32910,0,1.0,-0.03125,0.017578125,-0.013671875,0.0,0.0,0.0
41391865,32911,0,1.0,-0.033203125,0.015625,-0.017578125,0.0,0.0,0.0
41393115,32912,0,1.005859375,-0.03125,0.021484375,-0.009765625,0.0,0.0,0.0
41394365,32913,0,1.00390625,-0.03515625,0.01953125,-0.015625,0.0,0.0,0.0
41395617,32914,0,1.00390625,-0.0234375,0.01171875,-0.01171875,0.0,0.0,0.0
41396867,32915,0,1.00390625,-0.025390625,0.01953125,-0.005859375,0.0,0.0,0.0
41398118,32916,0,1.0078125,-0.03125,0.017578125,-0.013671875,0.0,0.0,0.0
41399369,32917,0,1.00390625,-0.033203125,0.0234375,-0.009765625,0.0,0.0,0.0
41400620,32918,0,0.998046875,-0.025390625,0.021484375,-0.00390625,0.0,0.0,0.0
41401871,32919,0,1.0,-0.029296875,0.01953125,-0.009765625,0.0,0.0,0.0
41403123,32920,0,1.009765625,-0.03125,0.01953125,-0.01171875,0.0,0.0,0.0
41404374,32921,0,1.015625,-0.033203125,0.01953125,-0.013671875,0.0,0.0,0.0
41405624,32922,0,1.009765625,-0.02734375,0.017578125,-0.009765625,0.0,0.0,0.0
41406875,32923,0,1.001953125,-0.025390625,0.0234375,-0.001953125,0.0,0.0,0.0
41408125,32924,0,0.994140625,-0.029296875,0.015625,-0.013671875,0.0,0.0,0.0
41409375,32925,0,1.005859375,-0.03515625,0.017578125,-0.017578125,0.0,0.0,0.0
41410626,32926,0,1.001953125,-0.03125,0.021484375,-0.009765625,0.0,0.0,0.0
41411877,32927,0,1.005859375,-0.03125,0.01953125,-0.01171875,0.0,0.0,0.0
41413129,32928,0,1.00390625,-0.025390625,0.015625,-0.009765625,0.0,0.0,0.0
41414380,32929,0,1.001953125,-0.03515625,0.01953125,-0.015625,0.0,0.0,0.0
41415630,32930,0,1.005859375,-0.03125,0.015625,-0.015625,0.0,0.0,0.0
41416881,32931,0,1.001953125,-0.03125,0.017578125,-0.013671875,0.0,0.0,0.0
41418133,32932,0,1.001953125,-0.033203125,0.017578125,-0.015625,0.0,0.0,0.0
41419384,32933,0,1.0,-0.029296875,0.01953125,-0.009765625,0.0,0.0,0.0
41420634,32934,0,0.998046875,-0.029296875,0.015625,-0.013671875,0.0,0.0,0.0
41421886,32935,0,1.005859375,-0.029296875,0.021484375,-0.0078125,0.0,0.0,0.0
41423136,32936,0,1.001953125,-0.03125,0.015625,-0.015625,0.0,0.0,0.0
41424386,32937,0,1.009765625,-0.029296875,0.021484375,-0.0078125,0.0,0.0,0.0
41425638,32938,0,0.99609375,-0.02734375,0.01953125,-0.0078125,0.0,0.0,0.0
41426888,32939,0,1.009765625,-0.02734375,0.0234375,-0.00390625,0.0,0.0,0.0
41428139,32940,0,1.0,-0.03125,0.029296875,-0.001953125,0.0,0.0,0.0
41429391,32941,0,1.001953125,-0.029296875,0.021484375,-0.0078125,0.0,0.0,0.0
41430641,32942,0,1.009765625,-0.033203125,0.01953125,-0.013671875,0.0,0.0,0.0
41431892,32943,0,1.0078125,-0.033203125,0.015625,-0.017578125,0.0,0.0,0.0
41433142,32944,0,1.017578125,-0.033203125,0.017578125,-0.015625,0.0,0.0,0.0
41434393,32945,0,1.0,-0.03125,0.015625,-0.015625,0.0,0.0,0.0
41435645,32946,0,1.00390625,-0.03515625,0.017578125,-0.017578125,0.0,0.0,0.0
41436895,32947,0,1.005859375,-0.037109375,0.01953125,-0.017578125,0.0,0.0,0.0
41438147,32948,0,1.001953125,-0.03515625,0.015625,-0.01953125,0.0,0.0,0.0
41439397,32949,0,1.00390625,-0.029296875,0.013671875,-0.015625,0.0,0.0,0.0
41440649,32950,0,1.005859375,-0.03125,0.01953125,-0.01171875,0.0,0.0,0.0
41441899,32951,0,1.0078125,-0.03125,0.01953125,-0.01171875,0.0,0.0,0.0
41443149,32952,0,1.0,-0.03125,0.01953125,-0.01171875,0.0,0.0,0.0
41444399,32953,0,0.99609375,-0.033203125,0.017578125,-0.015625,0.0,0.0,0.0
41445650,32954,0,1.001953125,-0.029296875,0.01953125,-0.009765625,0.0,0.0,0.0
41446902,32955,0,1.001953125,-0.029296875,0.017578125,-0.01171875,0.0,0.0,0.0
41448153,32956,0,1.0,-0.033203125,0.015625,-0.017578125,0.0,0.0,0.0
41449404,32957,0,1.0078125,-0.033203125,0.01953125,-0.013671875,0.0,0.0,0.0
41450654,32958,0,1.0078125,-0.03125,0.017578125,-0.013671875,0.0,0.0,0.0
41451904,32959,0,1.009765625,-0.03125,0.01171875,-0.01953125,0.0,0.0,0.0
41453155,32960,0,1.00390625,-0.025390625,0.021484375,-0.00390625,0.0,0.0,0.0
41454407,32961,0,1.001953125,-0.029296875,0.021484375,-0.0078125,0.0,0.0,0.0
41455657,32962,0,0.998046875,-0.033203125,0.01953125,-0.013671875,0.0,0.0,0.0
41456909,32963,0,1.001953125,-0.02734375,0.013671875,-0.013671875,0.0,0.0,0.0
41458159,32964,0,1.009765625,-0.03125,0.01953125,-0.01171875,0.0,0.0,0.0
41459409,32965,0,1.0,-0.03125,0.021484375,-0.009765625,0.0,0.0,0.0
41460661,32966,0,1.005859375,-0.029296875,0.015625,-0.013671875,0.0,0.0,0.0
41461911,32967,0,0.998046875,-0.033203125,0.017578125,-0.015625,0.0,0.0,0.0
41463161,32968,0,1.005859375,-0.033203125,0.017578125,-0.015625,0.0,0.0,0.0
41464411,32969,0,1.0,-0.033203125,0.01953125,-0.013671875,0.0,0.0,0.0
41465663,32970,0,1.00390625,-0.03125,0.01953125,-0.01171875,0.0,0.0,0.0
41466913,32971,0,1.0,-0.029296875,0.01953125,-0.009765625,0.0,0.0,0.0
41468164,32972,0,1.00390625,-0.02734375,0.0234375,-0.00390625,0.0,0.0,0.0
41469415,32973,0,1.00390625,-0.03125,0.02734375,-0.00390625,0.0,0.0,0.0
41470666,32974,0,1.00390625,-0.03125,0.015625,-0.015625,0.0,0.0,0.0
41471916,32975,0,1.001953125,-0.03125,0.01953125,-0.01171875,0.0,0.0,0.0
41473167,32976,0,1.001953125,-0.02734375,0.01953125,-0.0078125,0.0,0.0,0.0
41474417,32977,0,1.0,-0.02734375,0.017578125,-0.009765625,0.0,0.0,0.0
41475668,32978,0,1.005859375,-0.02734375,0.01953125,-0.0078125,0.0,0.0,0.0
41476920,32979,0,1.0,-0.03125,0.017578125,-0.013671875,0.0,0.0,0.0
41478171,32980,0,1.00390625,-0.03125,0.009765625,-0.021484375,0.0,0.0,0.0
41479421,32981,0,1.005859375,-0.03515625,0.017578125,-0.017578125,0.0,0.0,0.0
41480672,32982,0,1.00390625,-0.033203125,0.021484375,-0.01171875,0.0,0.0,0.0
41481924,32983,0,0.994140625,-0.03125,0.029296875,-0.001953125,0.0,0.0,0.0
41483174,32984,0,1.0,-0.03515625,0.013671875,-0.021484375,0.0,0.0,0.0
41484425,32985,0,1.005859375,-0.033203125,0.01953125,-0.013671875,0.0,0.0,0.0
41485677,32986,0,1.005859375,-0.03515625,0.01953125,-0.015625,0.0,0.0,0.0
41486927,32987,0,1.00390625,-0.03515625,0.015625,-0.01953125,0.0,0.0,0.0
41488177,32988,0,1.00390625,-0.03125,0.013671875,-0.017578125,0.0,0.0,0.0
41489429,32989,0,1.00390625,-0.029296875,0.015625,-0.013671875,0.0,0.0,0.0
41490679,32990,0,1.001953125,-0.033203125,0.01953125,-0.013671875,0.0,0.0,0.0
41491931,32991,0,1.005859375,-0.029296875,0.01953125,-0.009765625,0.0,0.0,0.0
41493181,32992,0,1.0,-0.03515625,0.015625,-0.01953125,0.0,0.0,0.0
41494431,32993,0,1.005859375,-0.03125,0.0234375,-0.0078125,0.0,0.0,0.0
41495683,32994,0,1.001953125,-0.029296875,0.02734375,-0.001953125,0.0,0.0,0.0
41496933,32995,0,1.005859375,-0.033203125,0.017578125,-0.015625,0.0,0.0,0.0
41498183,32996,0,1.0,-0.03125,0.021484375,-0.009765625,0.0,0.0,0.0
41499434,32997,0,1.0078125,-0.03125,0.013671875,-0.017578125,0.0,0.0,0.0
41500685,32998,0,1.00390625,-0.03125,0.017578125,-0.013671875,0.0,0.0,0.0
41501936,32999,0,0.998046875,-0.02734375,0.0234375,-0.00390625,0.0,0.0,0.0
41503186,33000,0,1.005859375,-0.033203125,0.017578125,-0.015625,0.0,0.0,0.0
41504437,33001,0,1.001953125,-0.029296875,0.01953125,-0.009765625,0.0,0.0,0.0
41505687,33002,0,1.00390625,-0.033203125,0.017578125,-0.015625,0.0,0.0,0.0
41506937,33003,0,1.0078125,-0.03515625,0.01171875,-0.0234375,0.0,0.0,0.0
41508188,33004,0,1.0078125,-0.02734375,0.0234375,-0.00390625,0.0,0.0,0.0
41509440,33005,0,1.005859375,-0.0234375,0.01953125,-0.00390625,0.0,0.0,0.0
41510690,33006,0,1.00390625,-0.029296875,0.015625,-0.013671875,0.0,0.0,0.0
41511942,33007,0,1.0,-0.03125,0.01171875,-0.01953125,0.0,0.0,0.0
41513193,33008,0,1.0,-0.029296875,0.021484375,-0.0078125,0.0,0.0,0.0
41514445,33009,0,0.998046875,-0.029296875,0.017578125,-0.01171875,0.0,0.0,0.0
41515695,33010,0,1.005859375,-0.025390625,0.021484375,-0.00390625,0.0,0.0,0.0
41516947,33011,0,0.998046875,-0.029296875,0.017578125,-0.01171875,0.0,0.0,0.0
41518198,33012,0,1.00390625,-0.025390625,0.01953125,-0.005859375,0.0,0.0,0.0
41519450,33013,0,1.005859375,-0.01953125,0.0234375,0.00390625,0.0,0.0,0.0
41520700,33014,0,1.001953125,-0.01953125,0.021484375,0.001953125,0.0,0.0,0.0
41521952,33015,0,1.0078125,-0.033203125,0.01953125,-0.013671875,0.0,0.0,0.0
41523203,33016,0,1.0078125,-0.03515625,0.009765625,-0.025390625,0.0,0.0,0.0
41524454,33017,0,1.00390625,-0.03515625,0.013671875,-0.021484375,0.0,0.0,0.0
41525705,33018,0,1.001953125,-0.03515625,0.015625,-0.01953125,0.0,0.0,0.0
41526957,33019,0,1.0,-0.033203125,0.017578125,-0.015625,0.0,0.0,0.0
41528207,33020,0,1.005859375,-0.033203125,0.017578125,-0.015625,0.0,0.0,0.0
41529459,33021,0,1.001953125,-0.037109375,0.017578125,-0.01953125,0.0,0.0,0.0
41530709,33022,0,1.0,-0.03515625,0.009765625,-0.025390625,0.0,0.0,0.0
41531959,33023,0,1.0,-0.03125,0.017578125,-0.013671875,0.0,0.0,0.0
41533209,33024,0,0.998046875,-0.04296875,0.005859375,-0.037109375,0.0,0.0,0.0
41534459,33025,0,1.009765625,-0.08203125,-0.015625,-0.09765625,0.0,0.0,0.0
41535711,33026,0,1.00390625,-0.14453125,-0.064453125,-0.208984375,0.0,0.0,0.0
41536961,33027,0,1.009765625,-0.044921875,-0.01953125,-0.064453125,0.0,0.0,0.0
41538213,33028,0,0.990234375,-0.1328125,-0.005859375,-0.138671875,0.0,0.0,0.0
41539464,33029,0,0.947265625,-0.32421875,0.283203125,-0.041015625,0.0,0.0,0.0
41540715,33030,0,0.990234375,0.24609375,0.19921875,0.4453125,0.0,0.0,0.0
41541966,33031,0,1.08984375,-0.09375,0.005859375,-0.087890625,0.0,0.0,0.0
41543216,33032,0,0.994140625,-0.064453125,-0.0078125,-0.072265625,0.0,0.0,0.0
41544467,33033,0,1.009765625,-0.060546875,0.0078125,-0.052734375,0.0,0.0,0.0
41545718,33034,0,1.0078125,-0.029296875,0.015625,-0.013671875,0.0,0.0,0.0
41546968,33035,0,1.005859375,0.013671875,0.03515625,0.048828125,0.0,0.0,0.0
41548219,33036,0,0.978515625,-0.05078125,0.021484375,-0.029296875,0.0,0.0,0.0
41549470,33037,0,1.015625,-0.1015625,-0.04296875,-0.14453125,0.0,0.0,0.0
41550721,33038,0,0.978515625,-0.029296875,0.03515625,0.005859375,0.0,0.0,0.0
41551971,33039,0,0.998046875,0.0078125,0.03125,0.0390625,0.0,0.0,0.0
41553223,33040,0,1.017578125,0.009765625,0.04296875,0.052734375,0.0,0.0,0.0
41554473,33041,0,1.021484375,-0.04296875,0.001953125,-0.041015625,0.0,0.0,0.0
41555723,33042,0,0.986328125,-0.02734375,0.02734375,0.0,0.0,0.0,0.0
41556975,33043,0,1.021484375,-0.037109375,0.009765625,-0.02734375,0.0,0.0,0.0
41558226,33044,0,0.9921875,-0.068359375,-0.00390625,-0.072265625,0.0,0.0,0.0
41559476,33045,0,0.970703125,-0.0234375,0.02734375,0.00390625,0.0,0.0,0.0
41560728,33046,0,1.009765625,-0.01953125,0.03515625,0.015625,0.0,0.0,0.0
41561979,33047,0,1.009765625,-0.029296875,0.015625,-0.013671875,0.0,0.0,0.0
41563229,33048,0,0.99609375,-0.0078125,0.0234375,0.015625,0.0,0.0,0.0
41564481,33049,0,0.998046875,-0.06640625,-0.001953125,-0.068359375,0.0,0.0,0.0
41565731,33050,0,1.005859375,-0.0390625,0.0,-0.0390625,0.0,0.0,0.0
41566981,33051,0,0.99609375,0.0078125,0.033203125,0.041015625,0.0,0.0,0.0
41568232,33052,0,0.998046875,-0.0078125,0.041015625,0.033203125,0.0,0.0,0.0
41569483,33053,0,1.013671875,-0.017578125,0.0078125,-0.009765625,0.0,0.0,0.0
41570734,33054,0,0.998046875,-0.05859375,0.029296875,-0.029296875,0.0,0.0,0.0
41571986,33055,0,0.990234375,-0.033203125,0.00390625,-0.029296875,0.0,0.0,0.0
41573236,33056,0,1.01171875,-0.01953125,0.02734375,0.0078125,0.0,0.0,0.0
41574486,33057,0,1.017578125,0.001953125,0.029296875,0.03125,0.0,0.0,0.0
41575737,33058,0,0.98828125,-0.0546875,0.01171875,-0.04296875,0.0,0.0,0.0
41576987,33059,0,0.998046875,-0.04296875,0.013671875,-0.029296875,0.0,0.0,0.0
41578238,33060,0,1.009765625,-0.0390625,0.013671875,-0.025390625,0.0,0.0,0.0
41579489,33061,0,0.986328125,-0.037109375,0.013671875,-0.0234375,0.0,0.0,0.0
41580740,33062,0,1.013671875,-0.029296875,0.015625,-0.013671875,0.0,0.0,0.0
41581991,33063,0,1.00390625,-0.001953125,0.0234375,0.021484375,0.0,0.0,0.0
41583241,33064,0,1.021484375,0.025390625,0.0390625,0.064453125,0.0,0.0,0.0
41584492,33065,0,1.0,-0.05078125,0.015625,-0.03515625,0.0,0.0,0.0
41585744,33066,0,0.9921875,-0.080078125,-0.025390625,-0.10546875,0.0,0.0,0.0
41586994,33067,0,0.994140625,-0.05859375,0.0,-0.05859375,0.0,0.0,0.0
41588245,33068,0,1.001953125,-0.01953125,0.017578125,-0.001953125,0.0,0.0,0.0
41589496,33069,0,1.001953125,-0.025390625,0.021484375,-0.00390625,0.0,0.0,0.0
41590747,33070,0,1.00390625,-0.04296875,-0.005859375,-0.048828125,0.0,0.0,0.0
41591998,33071,0,1.015625,0.009765625,0.029296875,0.0390625,0.0,0.0,0.0
41593249,33072,0,1.017578125,-0.01171875,-0.009765625,-0.021484375,0.0,0.0,0.0
41594499,33073,0,0.99609375,-0.08203125,-0.017578125,-0.099609375,0.0,0.0,0.0
41595751,33074,0,0.994140625,-0.029296875,0.01171875,-0.017578125,0.0,0.0,0.0
41597002,33075,0,1.00390625,-0.025390625,0.029296875,0.00390625,0.0,0.0,0.0
41598253,33076,0,1.00390625,-0.0625,0.00390625,-0.05859375,0.0,0.0,0.0
41599503,33077,0,1.0,-0.00390625,0.021484375,0.017578125,0.0,0.0,0.0
41600755,33078,0,1.01953125,-0.021484375,0.01953125,-0.001953125,0.0,0.0,0.0
41602005,33079,0,1.00390625,-0.0234375,0.017578125,-0.005859375,0.0,0.0,0.0
41603256,33080,0,1.00390625,-0.064453125,0.0078125,-0.056640625,0.0,0.0,0.0
41604506,33081,0,0.994140625,-0.05859375,-0.0078125,-0.06640625,0.0,0.0,0.0
41605757,33082,0,0.99609375,-0.03125,0.021484375,-0.009765625,0.0,0.0,0.0
41607008,33083,0,1.009765625,-0.052734375,0.0078125,-0.044921875,0.0,0.0,0.0
41608258,33084,0,0.9921875,-0.017578125,0.01953125,0.001953125,0.0,0.0,0.0
41609508,33085,0,1.021484375,-0.052734375,0.00390625,-0.048828125,0.0,0.0,0.0
41610759,33086,0,1.001953125,0.025390625,0.0390625,0.064453125,0.0,0.0,0.0
41612009,33087,0,1.0234375,-0.01953125,0.02734375,0.0078125,0.0,0.0,0.0
41613259,33088,0,1.00390625,-0.09375,-0.00390625,-0.09765625,0.0,0.0,0.0
41614510,33089,0,1.0,-0.072265625,-0.01953125,-0.091796875,0.0,0.0,0.0
41615762,33090,0,0.978515625,-0.0390625,0.0,-0.0390625,0.0,0.0,0.0
41617012,33091,0,1.009765625,-0.025390625,0.013671875,-0.01171875,0.0,0.0,0.0
41618271,33092,0,1.015625,0.009765625,0.048828125,0.05859375,0.0,0.0,0.0
41619521,33093,0,1.013671875,-0.060546875,0.005859375,-0.0546875,0.0,0.0,0.0
41620773,33094,0,1.00390625,-0.07421875,-0.01171875,-0.0859375,0.0,0.0,0.0
41622023,33095,0,1.001953125,-0.06640625,-0.009765625,-0.076171875,0.0,0.0,0.0
41623274,33096,0,1.001953125,-0.05859375,0.00390625,-0.0546875,0.0,0.0,0.0
41624525,33097,0,0.994140625,-0.0390625,0.015625,-0.0234375,0.0,0.0,0.0
41625776,33098,0,1.001953125,-0.091796875,-0.015625,-0.107421875,0.0,0.0,0.0
41627026,33099,0,0.984375,-0.06640625,0.001953125,-0.064453125,0.0,0.0,0.0
41628276,33100,0,1.00390625,-0.056640625,-0.00390625,-0.060546875,0.0,0.0,0.0
41629527,33101,0,1.009765625,-0.001953125,0.03125,0.029296875,0.0,0.0,0.0
41630778,33102,0,1.015625,-0.03515625,0.01953125,-0.015625,0.0,0.0,0.0
41632029,33103,0,0.994140625,-0.041015625,0.021484375,-0.01953125,0.0,0.0,0.0
41633280,33104,0,1.001953125,-0.08203125,-0.0078125,-0.08984375,0.0,0.0,0.0
41634531,33105,0,0.990234375,-0.015625,0.01953125,0.00390625,0.0,0.0,0.0
41635783,33106,0,1.0078125,-0.0390625,0.02734375,-0.01171875,0.0,0.0,0.0
41637034,33107,0,1.00390625,-0.068359375,-0.00390625,-0.072265625,0.0,0.0,0.0
41638286,33108,0,0.9921875,-0.05859375,-0.00390625,-0.0625,0.0,0.0,0.0
41639537,33109,0,1.013671875,0.021484375,0.046875,0.068359375,0.0,0.0,0.0
41640789,33110,0,1.01953125,0.025390625,0.0390625,0.064453125,0.0,0.0,0.0
41642039,33111,0,1.009765625,-0.076171875,0.015625,-0.060546875,0.0,0.0,0.0
41643289,33112,0,0.978515625,-0.208984375,-0.048828125,-0.2578125,0.0,0.0,0.0
41644541,33113,0,0.962890625,-0.2578125,-0.111328125,-0.369140625,0.0,0.0,0.0
41645792,33114,0,0.990234375,-0.146484375,0.033203125,-0.11328125,0.0,0.0,0.0
41647044,33115,0,1.01171875,0.041015625,0.0703125,0.111328125,0.0,0.0,0.0
41648294,33116,0,1.0234375,0.060546875,0.05859375,0.119140625,0.0,0.0,0.0
41649544,33117,0,1.015625,-0.01953125,0.017578125,-0.001953125,0.0,0.0,0.0
41650795,33118,0,1.005859375,-0.12890625,-0.021484375,-0.150390625,0.0,0.0,0.0
41652045,33119,0,0.9921875,-0.3515625,-0.1171875,-0.46875,0.0,0.0,0.0
41653295,33120,0,0.9453125,-0.748046875,-0.259765625,-1.0078125,0.0,0.0,0.0
41654546,33121,0,1.119140625,-1.609375,-0.431640625,-2.041015625,0.0,0.0,0.0
41655797,33122,0,1.009765625,-3.046875,-1.0625,-4.109375,0.0,0.0,0.0
41657048,33123,0,1.01953125,-4.0,-1.994140625,-5.994140625,0.0,0.0,0.0
41658299,33124,0,0.83203125,-3.86328125,-1.61328125,-5.4765625,0.0,0.0,0.0
41659550,33125,0,0.826171875,-3.880859375,-1.5078125,-5.388671875,0.0,0.0,0.0
41660800,33126,0,0.46875,-4.0,-4.0,-8.0,0.0,0.0,0.0
41662052,33127,0,2.03125,-4.0,-4.0,-8.0,0.0,0.0,0.0
41663303,33128,0,-0.48828125,-1.69140625,-4.0,-5.69140625,0.0,0.0,0.0
41664554,33129,0,1.515625,3.998046875,-1.388671875,2.609375,0.0,0.0,0.0
41665805,33130,0,1.048828125,3.998046875,0.759765625,4.7578125,0.0,0.0,0.0
41667057,33131,0,2.2734375,3.998046875,2.982421875,6.98046875,0.0,0.0,0.0
41668308,33132,0,1.009765625,3.998046875,3.998046875,7.99609375,0.0,0.0,0.0
41669560,33133,0,1.21875,3.998046875,3.998046875,7.99609375,0.0,0.0,0.0
41670811,33134,0,1.328125,3.998046875,3.59375,7.591796875,0.0,0.0,0.0
41672063,33135,0,0.859375,3.998046875,2.353515625,6.3515625,0.0,0.0,0.0
41673314,33136,0,0.947265625,1.884765625,0.46484375,2.349609375,0.0,0.0,0.0
41674565,33137,0,1.228515625,-1.873046875,-1.150390625,-3.0234375,0.0,0.0,0.0
41675816,33138,0,1.26953125,-4.0,-2.017578125,-6.017578125,0.0,0.0,0.0
41677066,33139,0,0.4765625,-4.0,-2.37109375,-6.37109375,0.0,0.0,0.0
41678318,33140,0,0.978515625,-4.0,-2.623046875,-6.623046875,0.0,0.0,0.0
41679569,33141,0,0.79296875,-4.0,-2.27734375,-6.27734375,0.0,0.0,0.0
41680819,33142,0,0.35546875,-4.0,-1.595703125,-5.595703125,0.0,0.0,0.0
41682070,33143,0,1.029296875,-1.93359375,-1.037109375,-2.970703125,0.0,0.0,0.0
41683321,33144,0,1.3125,0.359375,-0.30078125,0.05859375,0.0,0.0,0.0
41684572,33145,0,1.13671875,2.328125,0.57421875,2.90234375,0.0,0.0,0.0
41685823,33146,0,1.25,3.59375,1.140625,4.734375,0.0,0.0,0.0
41687074,33147,0,1.271484375,3.9765625,1.3828125,5.359375,0.0,0.0,0.0
41688325,33148,0,0.896484375,3.81640625,1.546875,5.36328125,0.0,0.0,0.0
41689575,33149,0,0.771484375,2.923828125,1.35546875,4.279296875,0.0,0.0,0.0
41690825,33150,0,1.1640625,1.669921875,0.65234375,2.322265625,0.0,0.0,0.0
41692076,33151,0,1.044921875,0.30859375,0.1640625,0.47265625,0.0,0.0,0.0
41693326,33152,0,0.88671875,-0.921875,-0.265625,-1.1875,0.0,0.0,0.0
41694577,33153,0,1.2265625,-1.828125,-0.763671875,-2.591796875,0.0,0.0,0.0
41695828,33154,0,1.017578125,-2.28125,-0.875,-3.15625,0.0,0.0,0.0
41697078,33155,0,0.76171875,-2.2890625,-0.736328125,-3.025390625,0.0,0.0,0.0
41698329,33156,0,0.849609375,-1.91015625,-0.65234375,-2.5625,0.0,0.0,0.0
41699581,33157,0,1.001953125,-1.197265625,-0.109375,-1.306640625,0.0,0.0,0.0
41700833,33158,0,0.84765625,-0.408203125,0.095703125,-0.3125,0.0,0.0,0.0
41702083,33159,0,1.02734375,0.931640625,0.212890625,1.14453125,0.0,0.0,0.0
41703333,33160,0,1.029296875,1.271484375,0.4921875,1.763671875,0.0,0.0,0.0
41704584,33161,0,1.009765625,1.33984375,0.560546875,1.900390625,0.0,0.0,0.0
41705835,33162,0,1.08984375,1.1484375,0.4609375,1.609375,0.0,0.0,0.0
41707085,33163,0,0.919921875,0.78125,0.40625,1.1875,0.0,0.0,0.0
41708336,33164,0,0.859375,0.322265625,0.2578125,0.580078125,0.0,0.0,0.0
41709587,33165,0,1.05078125,-0.14453125,-0.03125,-0.17578125,0.0,0.0,0.0
41710838,33166,0,1.1015625,-0.517578125,-0.21484375,-0.732421875,0.0,0.0,0.0
41712090,33167,0,0.97265625,-0.75,-0.236328125,-0.986328125,0.0,0.0,0.0
41713341,33168,0,1.078125,-0.81640625,-0.31640625,-1.1328125,0.0,0.0,0.0
41714592,33169,0,1.033203125,-0.72265625,-0.2578125,-0.98046875,0.0,0.0,0.0
41715844,33170,0,0.833984375,-0.49609375,-0.1015625,-0.59765625,0.0,0.0,0.0
41717095,33171,0,0.90625,-0.21875,-0.02734375,-0.24609375,0.0,0.0,0.0
41718346,33172,0,1.0390625,0.05078125,0.015625,0.06640625,0.0,0.0,0.0
41719597,33173,0,1.021484375,0.291015625,0.1171875,0.408203125,0.0,0.0,0.0
41720849,33174,0,1.0703125,0.4296875,0.16015625,0.58984375,0.0,0.0,0.0
41722099,33175,0,1.154296875,0.482421875,0.1484375,0.630859375,0.0,0.0,0.0
41723351,33176,0,1.033203125,0.4375,0.193359375,0.630859375,0.0,0.0,0.0
41724602,33177,0,0.904296875,0.31640625,0.208984375,0.525390625,0.0,0.0,0.0
41725854,33178,0,0.9609375,0.158203125,0.1171875,0.275390625,0.0,0.0,0.0
41727104,33179,0,0.95703125,-0.013671875,0.056640625,0.04296875,0.0,0.0,0.0
41728354,33180,0,0.958984375,-0.138671875,0.0078125,-0.130859375,0.0,0.0,0.0
41729605,33181,0,1.080078125,-0.25,-0.1015625,-0.3515625,0.0,0.0,0.0
41730855,33182,0,1.1015625,-0.28515625,-0.126953125,-0.412109375,0.0,0.0,0.0
41732107,33183,0,1.005859375,-0.263671875,-0.08203125,-0.345703125,0.0,0.0,0.0
41733358,33184,0,0.958984375,-0.189453125,-0.037109375,-0.2265625,0.0,0.0,0.0
41734609,33185,0,0.978515625,-0.091796875,-0.005859375,-0.09765625,0.0,0.0,0.0
41735859,33186,0,0.927734375,0.001953125,0.064453125,0.06640625,0.0,0.0,0.0
41737111,33187,0,0.96484375,0.091796875,0.0859375,0.177734375,0.0,0.0,0.0
41738362,33188,0,1.078125,0.146484375,0.048828125,0.1953125,0.0,0.0,0.0
41739613,33189,0,1.064453125,0.16796875,0.048828125,0.216796875,0.0,0.0,0.0
41740865,33190,0,1.03125,0.146484375,0.068359375,0.21484375,0.0,0.0,0.0
41742115,33191,0,1.03125,0.103515625,0.0546875,0.158203125,0.0,0.0,0.0
41743365,33192,0,0.990234375,0.0390625,0.046875,0.0859375,0.0,0.0,0.0
41744617,33193,0,0.921875,-0.021484375,0.060546875,0.0390625,0.0,0.0,0.0
41745867,33194,0,0.96875,-0.0625,0.013671875,-0.048828125,0.0,0.0,0.0
41747118,33195,0,1.029296875,-0.1015625,-0.029296875,-0.130859375,0.0,0.0,0.0
41748369,33196,0,1.01171875,-0.11328125,-0.029296875,-0.142578125,0.0,0.0,0.0
41749620,33197,0,1.048828125,-0.115234375,-0.048828125,-0.1640625,0.0,0.0,0.0
41750871,33198,0,1.0625,-0.09375,-0.044921875,-0.138671875,0.0,0.0,0.0
41752123,33199,0,0.998046875,-0.0625,-0.001953125,-0.064453125,0.0,0.0,0.0
41753374,33200,0,0.9609375,-0.041015625,0.033203125,-0.0078125,0.0,0.0,0.0
41754624,33201,0,0.978515625,0.009765625,0.02734375,0.037109375,0.0,0.0,0.0
41755875,33202,0,0.98828125,0.017578125,0.03515625,0.052734375,0.0,0.0,0.0
41757125,33203,0,1.052734375,0.01953125,0.0,0.01953125,0.0,0.0,0.0
41758375,33204,0,1.0625,0.0078125,0.0078125,0.015625,0.0,0.0,0.0
41759626,33205,0,1.00390625,-0.01171875,0.017578125,0.005859375,0.0,0.0,0.0
41760877,33206,0,0.98828125,-0.029296875,0.017578125,-0.01171875,0.0,0.0,0.0
41762129,33207,0,0.982421875,-0.0546875,0.01953125,-0.03515625,0.0,0.0,0.0
41763380,33208,0,0.958984375,-0.06640625,0.017578125,-0.048828125,0.0,0.0,0.0
41764630,33209,0,0.982421875,-0.0703125,-0.001953125,-0.072265625,0.0,0.0,0.0
41765881,33210,0,1.04296875,-0.068359375,-0.01953125,-0.087890625,0.0,0.0,0.0
41767133,33211,0,1.04296875,-0.0625,-0.017578125,-0.080078125,0.0,0.0,0.0
41768384,33212,0,1.025390625,-0.046875,-0.001953125,-0.048828125,0.0,0.0,0.0
41769634,33213,0,1.013671875,-0.037109375,0.0078125,-0.029296875,0.0,0.0,0.0
41770886,33214,0,0.98046875,-0.025390625,0.01953125,-0.005859375,0.0,0.0,0.0
41772136,33215,0,0.96484375,-0.0234375,0.037109375,0.013671875,0.0,0.0,0.0
41773386,33216,0,0.9921875,-0.021484375,0.029296875,0.0078125,0.0,0.0,0.0
41774638,33217,0,1.021484375,-0.01953125,0.001953125,-0.017578125,0.0,0.0,0.0
41775888,33218,0,1.0234375,-0.015625,0.01171875,-0.00390625,0.0,0.0,0.0
41777139,33219,0,1.03515625,-0.017578125,0.01171875,-0.005859375,0.0,0.0,0.0
41778391,33220,0,1.02734375,-0.01171875,0.015625,0.00390625,0.0,0.0,0.0
41779641,33221,0,0.98828125,-0.015625,0.037109375,0.021484375,0.0,0.0,0.0
41780892,33222,0,0.9765625,-0.0234375,0.044921875,0.021484375,0.0,0.0,0.0
41782142,33223,0,0.994140625,-0.025390625,0.025390625,0.0,0.0,0.0,0.0
41783393,33224,0,1.001953125,-0.029296875,0.01953125,-0.009765625,0.0,0.0,0.0
41784645,33225,0,1.00390625,-0.02734375,0.013671875,-0.013671875,0.0,0.0,0.0
41785895,33226,0,1.03125,-0.02734375,0.00390625,-0.0234375,0.0,0.0,0.0
41787147,33227,0,1.015625,-0.01953125,0.013671875,-0.005859375,0.0,0.0,0.0
41788397,33228,0,0.99609375,-0.015625,0.029296875,0.013671875,0.0,0.0,0.0
41789649,33229,0,0.99609375,-0.015625,0.03515625,0.01953125,0.0,0.0,0.0
41790899,33230,0,0.99609375,-0.01171875,0.037109375,0.025390625,0.0,0.0,0.0
41792149,33231,0,0.986328125,-0.013671875,0.029296875,0.015625,0.0,0.0,0.0
41793399,33232,0,1.005859375,-0.013671875,0.025390625,0.01171875,0.0,0.0,0.0
41794650,33233,0,1.02734375,-0.01171875,0.017578125,0.005859375,0.0,0.0,0.0
41795902,33234,0,1.0078125,-0.013671875,0.025390625,0.01171875,0.0,0.0,0.0
41797153,33235,0,1.009765625,-0.013671875,0.021484375,0.0078125,0.0,0.0,0.0
41798404,33236,0,1.0,-0.009765625,0.033203125,0.0234375,0.0,0.0,0.0
41799654,33237,0,0.9921875,-0.01171875,0.033203125,0.021484375,0.0,0.0,0.0
41800904,33238,0,0.982421875,-0.015625,0.033203125,0.017578125,0.0,0.0,0.0
41802155,33239,0,1.015625,-0.01171875,0.0234375,0.01171875,0.0,0.0,0.0
41803407,33240,0,1.015625,-0.0234375,0.01953125,-0.00390625,0.0,0.0,0.0
41804657,33241,0,1.015625,-0.025390625,0.01171875,-0.013671875,0.0,0.0,0.0
41805909,33242,0,1.01171875,-0.0234375,0.015625,-0.0078125,0.0,0.0,0.0
41807159,33243,0,1.0078125,-0.021484375,0.037109375,0.015625,0.0,0.0,0.0
41808409,33244,0,0.986328125,-0.0234375,0.0234375,0.0,0.0,0.0,0.0
41809661,33245,0,0.986328125,-0.02734375,0.0234375,-0.00390625,0.0,0.0,0.0
41810911,33246,0,1.001953125,-0.025390625,0.021484375,-0.00390625,0.0,0.0,0.0
41812161,33247,0,1.01953125,-0.02734375,0.009765625,-0.017578125,0.0,0.0,0.0
41813411,33248,0,1.02734375,-0.033203125,0.005859375,-0.02734375,0.0,0.0,0.0
41814663,33249,0,1.00390625,-0.033203125,0.01953125,-0.013671875,0.0,0.0,0.0
41815913,33250,0,0.994140625,-0.033203125,0.021484375,-0.01171875,0.0,0.0,0.0
41817164,33251,0,0.998046875,-0.03515625,0.021484375,-0.013671875,0.0,0.0,0.0
41818415,33252,0,0.98828125,-0.033203125,0.0078125,-0.025390625,0.0,0.0,0.0
41819666,33253,0,1.001953125,-0.037109375,0.015625,-0.021484375,0.0,0.0,0.0
41820916,33254,0,1.021484375,-0.033203125,0.0,-0.033203125,0.0,0.0,0.0
41822167,33255,0,1.01953125,-0.0390625,0.0,-0.0390625,0.0,0.0,0.0
41823417,33256,0,0.998046875,-0.041015625,0.0078125,-0.033203125,0.0,0.0,0.0
41824668,33257,0,1.001953125,-0.0390625,0.005859375,-0.033203125,0.0,0.0,0.0
41825920,33258,0,1.005859375,-0.033203125,0.009765625,-0.0234375,0.0,0.0,0.0
41827171,33259,0,0.98828125,-0.037109375,0.009765625,-0.02734375,0.0,0.0,0.0
41828421,33260,0,1.0,-0.0390625,0.015625,-0.0234375,0.0,0.0,0.0
41829672,33261,0,1.01171875,-0.033203125,0.0,-0.033203125,0.0,0.0,0.0
41830924,33262,0,1.009765625,-0.037109375,-0.005859375,-0.04296875,0.0,0.0,0.0
41832174,33263,0,1.005859375,-0.029296875,0.00390625,-0.025390625,0.0,0.0,0.0
41833425,33264,0,1.017578125,-0.037109375,0.00390625,-0.033203125,0.0,0.0,0.0
41834677,33265,0,1.0,-0.033203125,0.005859375,-0.02734375,0.0,0.0,0.0
41835927,33266,0,0.994140625,-0.03125,0.017578125,-0.013671875,0.0,0.0,0.0
41837177,33267,0,0.994140625,-0.03515625,0.0078125,-0.02734375,0.0,0.0,0.0
41838429,33268,0,1.00390625,-0.029296875,0.001953125,-0.02734375,0.0,0.0,0.0
41839679,33269,0,1.00390625,-0.02734375,0.001953125,-0.025390625,0.0,0.0,0.0
41840931,33270,0,1.01171875,-0.029296875,0.00390625,-0.025390625,0.0,0.0,0.0
41842181,33271,0,1.015625,-0.025390625,0.005859375,-0.01953125,0.0,0.0,0.0
41843431,33272,0,0.998046875,-0.021484375,0.005859375,-0.015625,0.0,0.0,0.0
41844683,33273,0,0.99609375,-0.021484375,0.005859375,-0.015625,0.0,0.0,0.0
41845933,33274,0,0.99609375,-0.021484375,0.017578125,-0.00390625,0.0,0.0,0.0
41847183,33275,0,0.99609375,-0.021484375,0.013671875,-0.0078125,0.0,0.0,0.0
41848434,33276,0,1.005859375,-0.021484375,0.015625,-0.005859375,0.0,0.0,0.0
41849685,33277,0,1.009765625,-0.01953125,0.0078125,-0.01171875,0.0,0.0,0.0
41850936,33278,0,1.015625,-0.015625,0.009765625,-0.005859375,0.0,0.0,0.0
41852186,33279,0,1.0078125,-0.017578125,0.015625,-0.001953125,0.0,0.0,0.0
41853437,33280,0,1.001953125,-0.025390625,0.015625,-0.009765625,0.0,0.0,0.0
41854687,33281,0,0.99609375,-0.01953125,0.01953125,0.0,0.0,0.0,0.0
41855937,33282,0,0.994140625,-0.01953125,0.0234375,0.00390625,0.0,0.0,0.0
41857188,33283,0,1.0,-0.013671875,0.013671875,0.0,0.0,0.0,0.0
41858440,33284,0,1.005859375,-0.015625,0.01171875,-0.00390625,0.0,0.0,0.0
41859690,33285,0,1.009765625,-0.01953125,0.025390625,0.005859375,0.0,0.0,0.0
41860942,33286,0,1.005859375,-0.009765625,0.0234375,0.013671875,0.0,0.0,0.0
41862193,33287,0,1.013671875,-0.009765625,0.0234375,0.013671875,0.0,0.0,0.0
41863445,33288,0,0.98828125,-0.01953125,0.03125,0.01171875,0.0,0.0,0.0
41864695,33289,0,1.001953125,-0.01953125,0.0234375,0.00390625,0.0,0.0,0.0
41865947,33290,0,1.009765625,-0.021484375,0.015625,-0.005859375,0.0,0.0,0.0
41867198,33291,0,1.005859375,-0.021484375,0.01953125,-0.001953125,0.0,0.0,0.0
41868450,33292,0,1.009765625,-0.017578125,0.01953125,0.001953125,0.0,0.0,0.0
41869700,33293,0,1.005859375,-0.01953125,0.01953125,0.0,0.0,0.0,0.0
41870952,33294,0,0.99609375,-0.01953125,0.0234375,0.00390625,0.0,0.0,0.0
41872203,33295,0,1.0,-0.0234375,0.0234375,0.0,0.0,0.0,0.0
41873454,33296,0,1.00390625,-0.0234375,0.01953125,-0.00390625,0.0,0.0,0.0
41874705,33297,0,1.005859375,-0.021484375,0.0234375,0.001953125,0.0,0.0,0.0
41875957,33298,0,1.0078125,-0.029296875,0.025390625,-0.00390625,0.0,0.0,0.0
41877207,33299,0,1.009765625,-0.029296875,0.021484375,-0.0078125,0.0,0.0,0.0
41878459,33300,0,1.005859375,-0.02734375,0.01953125,-0.0078125,0.0,0.0,0.0
41879709,33301,0,1.0,-0.029296875,0.025390625,-0.00390625,0.0,0.0,0.0
41880959,33302,0,1.0,-0.029296875,0.0234375,-0.005859375,0.0,0.0,0.0
41882209,33303,0,1.001953125,-0.03125,0.021484375,-0.009765625,0.0,0.0,0.0
41883459,33304,0,0.99609375,-0.02734375,0.021484375,-0.005859375,0.0,0.0,0.0
41884711,33305,0,1.009765625,-0.033203125,0.01171875,-0.021484375,0.0,0.0,0.0
41885961,33306,0,1.0,-0.037109375,0.021484375,-0.015625,0.0,0.0,0.0
41887213,33307,0,1.0078125,-0.041015625,0.013671875,-0.02734375,0.0,0.0,0.0
41888464,33308,0,1.009765625,-0.03515625,0.013671875,-0.021484375,0.0,0.0,0.0
41889715,33309,0,1.0,-0.037109375,0.01953125,-0.017578125,0.0,0.0,0.0
41890966,33310,0,1.005859375,-0.03515625,0.017578125,-0.017578125,0.0,0.0,0.0
41892216,33311,0,0.998046875,-0.03515625,0.015625,-0.01953125,0.0,0.0,0.0
41893467,33312,0,1.005859375,-0.03515625,0.01171875,-0.0234375,0.0,0.0,0.0
41894718,33313,0,1.009765625,-0.03515625,0.009765625,-0.025390625,0.0,0.0,0.0
41895968,33314,0,1.005859375,-0.041015625,0.01171875,-0.029296875,0.0,0.0,0.0
41897219,33315,0,1.001953125,-0.03515625,0.009765625,-0.025390625,0.0,0.0,0.0
41898470,33316,0,0.998046875,-0.037109375,0.013671875,-0.0234375,0.0,0.0,0.0
41899721,33317,0,1.001953125,-0.037109375,0.01171875,-0.025390625,0.0,0.0,0.0
41900971,33318,0,0.998046875,-0.03515625,0.01171875,-0.0234375,0.0,0.0,0.0
41902223,33319,0,1.0078125,-0.03125,0.015625,-0.015625,0.0,0.0,0.0
41903473,33320,0,1.005859375,-0.033203125,0.009765625,-0.0234375,0.0,0.0,0.0
41904723,33321,0,1.001953125,-0.029296875,0.005859375,-0.0234375,0.0,0.0,0.0
41905975,33322,0,1.0078125,-0.03125,0.00390625,-0.02734375,0.0,0.0,0.0
41907226,33323,0,1.00390625,-0.0234375,0.0078125,-0.015625,0.0,0.0,0.0
41908476,33324,0,1.00390625,-0.021484375,0.013671875,-0.0078125,0.0,0.0,0.0
41909728,33325,0,1.0,-0.025390625,0.01171875,-0.013671875,0.0,0.0,0.0
41910979,33326,0,1.001953125,-0.0234375,0.01171875,-0.01171875,0.0,0.0,0.0
41912229,33327,0,0.998046875,-0.02734375,0.013671875,-0.013671875,0.0,0.0,0.0
41913481,33328,0,1.00390625,-0.0234375,0.01171875,-0.01171875,0.0,0.0,0.0
41914731,33329,0,1.0078125,-0.0234375,0.0078125,-0.015625,0.0,0.0,0.0
41915981,33330,0,1.00390625,-0.0234375,0.0078125,-0.015625,0.0,0.0,0.0
41917232,33331,0,1.001953125,-0.021484375,0.013671875,-0.0078125,0.0,0.0,0.0
41918483,33332,0,1.001953125,-0.017578125,0.009765625,-0.0078125,0.0,0.0,0.0
41919734,33333,0,0.998046875,-0.021484375,0.015625,-0.005859375,0.0,0.0,0.0
41920986,33334,0,1.01171875,-0.0234375,0.015625,-0.0078125,0.0,0.0,0.0
41922236,33335,0,1.0078125,-0.017578125,0.01171875,-0.005859375,0.0,0.0,0.0
41923486,33336,0,1.0078125,-0.013671875,0.0078125,-0.005859375,0.0,0.0,0.0
41924737,33337,0,1.005859375,-0.015625,0.01953125,0.00390625,0.0,0.0,0.0
41925987,33338,0,1.005859375,-0.01953125,0.015625,-0.00390625,0.0,0.0,0.0
41927238,33339,0,1.001953125,-0.015625,0.01953125,0.00390625,0.0,0.0,0.0
41928489,33340,0,1.0,-0.017578125,0.01171875,-0.005859375,0.0,0.0,0.0
41929740,33341,0,1.0,-0.015625,0.01953125,0.00390625,0.0,0.0,0.0
41930991,33342,0,1.0078125,-0.017578125,0.013671875,-0.00390625,0.0,0.0,0.0
41932241,33343,0,1.0078125,-0.017578125,0.015625,-0.001953125,0.0,0.0,0.0
41933492,33344,0,1.01171875,-0.021484375,0.009765625,-0.01171875,0.0,0.0,0.0
41934744,33345,0,1.015625,-0.01171875,0.017578125,0.005859375,0.0,0.0,0.0
41935994,33346,0,1.01171875,-0.021484375,0.013671875,-0.0078125,0.0,0.0,0.0
41937245,33347,0,0.99609375,-0.01953125,0.021484375,0.001953125,0.0,0.0,0.0
41938496,33348,0,0.9921875,-0.01953125,0.015625,-0.00390625,0.0,0.0,0.0
41939747,33349,0,1.0078125,-0.0234375,0.021484375,-0.001953125,0.0,0.0,0.0
41940998,33350,0,0.99609375,-0.0234375,0.017578125,-0.005859375,0.0,0.0,0.0
41942249,33351,0,0.998046875,-0.021484375,0.013671875,-0.0078125,0.0,0.0,0.0
41943499,33352,0,1.00390625,-0.02734375,0.013671875,-0.013671875,0.0,0.0,0.0
41944751,33353,0,1.0,-0.0234375,0.01953125,-0.00390625,0.0,0.0,0.0
41946002,33354,0,0.99609375,-0.025390625,0.017578125,-0.0078125,0.0,0.0,0.0
41947253,33355,0,0.99609375,-0.02734375,0.015625,-0.01171875,0.0,0.0,0.0
41948503,33356,0,1.00390625,-0.029296875,0.01953125,-0.009765625,0.0,0.0,0.0
41949755,33357,0,1.00390625,-0.02734375,0.013671875,-0.013671875,0.0,0.0,0.0
41951005,33358,0,1.0078125,-0.029296875,0.015625,-0.013671875,0.0,0.0,0.0
41952256,33359,0,1.005859375,-0.025390625,0.01953125,-0.005859375,0.0,0.0,0.0
41953506,33360,0,1.0078125,-0.025390625,0.017578125,-0.0078125,0.0,0.0,0.0
41954757,33361,0,1.00390625,-0.029296875,0.017578125,-0.01171875,0.0,0.0,0.0
41956008,33362,0,1.00390625,-0.033203125,0.021484375,-0.01171875,0.0,0.0,0.0
41957258,33363,0,1.0,-0.03515625,0.017578125,-0.017578125,0.0,0.0,0.0
41958508,33364,0,1.0,-0.033203125,0.017578125,-0.015625,0.0,0.0,0.0
41959759,33365,0,1.00390625,-0.03515625,0.01953125,-0.015625,0.0,0.0,0.0
41961009,33366,0,1.009765625,-0.037109375,0.017578125,-0.01953125,0.0,0.0,0.0
41962259,33367,0,1.001953125,-0.033203125,0.01953125,-0.013671875,0.0,0.0,0.0
41963510,33368,0,1.005859375,-0.0390625,0.015625,-0.0234375,0.0,0.0,0.0
41964762,33369,0,1.01171875,-0.03515625,0.01953125,-0.015625,0.0,0.0,0.0
41966012,33370,0,1.0078125,-0.044921875,0.0078125,-0.037109375,0.0,0.0,0.0
41967271,33371,0,1.00390625,-0.033203125,0.009765625,-0.0234375,0.0,0.0,0.0
41968521,33372,0,1.005859375,-0.037109375,0.015625,-0.021484375,0.0,0.0,0.0
41969773,33373,0,1.0078125,-0.029296875,0.00390625,-0.025390625,0.0,0.0,0.0
41971023,33374,0,0.99609375,-0.033203125,0.009765625,-0.0234375,0.0,0.0,0.0
41972274,33375,0,1.0078125,-0.033203125,0.01953125,-0.013671875,0.0,0.0,0.0
41973525,33376,0,1.00390625,-0.03125,0.013671875,-0.017578125,0.0,0.0,0.0
41974776,33377,0,1.001953125,-0.02734375,0.01171875,-0.015625,0.0,0.0,0.0
41976026,33378,0,1.00390625,-0.033203125,0.01171875,-0.021484375,0.0,0.0,0.0
41977276,33379,0,1.005859375,-0.03125,0.015625,-0.015625,0.0,0.0,0.0
41978527,33380,0,1.005859375,-0.02734375,0.013671875,-0.013671875,0.0,0.0,0.0
41979778,33381,0,1.0,-0.03125,0.015625,-0.015625,0.0,0.0,0.0
41981029,33382,0,1.0078125,-0.029296875,0.01953125,-0.009765625,0.0,0.0,0.0
41982280,33383,0,1.00390625,-0.02734375,0.015625,-0.01171875,0.0,0.0,0.0
41983531,33384,0,1.001953125,-0.025390625,0.013671875,-0.01171875,0.0,0.0,0.0
41984783,33385,0,1.001953125,-0.029296875,0.015625,-0.013671875,0.0,0.0,0.0
41986034,33386,0,1.0078125,-0.0234375,0.013671875,-0.009765625,0.0,0.0,0.0
41987286,33387,0,1.0078125,-0.0234375,0.017578125,-0.005859375,0.0,0.0,0.0
41988537,33388,0,1.00390625,-0.021484375,0.017578125,-0.00390625,0.0,0.0,0.0
41989789,33389,0,1.0,-0.021484375,0.025390625,0.00390625,0.0,0.0,0.0
41991039,33390,0,1.017578125,-0.021484375,0.013671875,-0.0078125,0.0,0.0,0.0
41992289,33391,0,1.00390625,-0.01953125,0.013671875,-0.005859375,0.0,0.0,0.0
41993541,33392,0,1.005859375,-0.01953125,0.009765625,-0.009765625,0.0,0.0,0.0
41994792,33393,0,1.00390625,-0.021484375,0.015625,-0.005859375,0.0,0.0,0.0
41996044,33394,0,1.015625,-0.021484375,0.0234375,0.001953125,0.0,0.0,0.0
41997294,33395,0,1.0078125,-0.017578125,0.021484375,0.00390625,0.0,0.0,0.0
41998544,33396,0,1.0,-0.01953125,0.017578125,-0.001953125,0.0,0.0,0.0
41999795,33397,0,1.001953125,-0.02734375,0.015625,-0.01171875,0.0,0.0,0.0
42001045,33398,0,1.00390625,-0.021484375,0.015625,-0.005859375,0.0,0.0,0.0
42002295,33399,0,1.00390625,-0.021484375,0.01171875,-0.009765625,0.0,0.0,0.0
42003546,33400,0,0.998046875,-0.01953125,0.01171875,-0.0078125,0.0,0.0,0.0
42004797,33401,0,1.0,-0.01953125,0.015625,-0.00390625,0.0,0.0,0.0
42006048,33402,0,1.001953125,-0.021484375,0.009765625,-0.01171875,0.0,0.0,0.0
42007299,33403,0,1.001953125,-0.017578125,0.017578125,0.0,0.0,0.0,0.0
42008550,33404,0,1.005859375,-0.015625,0.021484375,0.005859375,0.0,0.0,0.0
42009800,33405,0,1.0078125,-0.015625,0.009765625,-0.005859375,0.0,0.0,0.0
42011052,33406,0,1.001953125,-0.017578125,0.017578125,0.0,0.0,0.0,0.0
42012303,33407,0,1.00390625,-0.021484375,0.017578125,-0.00390625,0.0,0.0,0.0
42013554,33408,0,1.0078125,-0.01953125,0.017578125,-0.001953125,0.0,0.0,0.0
42014805,33409,0,1.005859375,-0.021484375,0.021484375,0.0,0.0,0.0,0.0
42016057,33410,0,0.998046875,-0.02734375,0.013671875,-0.013671875,0.0,0.0,0.0
42017308,33411,0,1.0078125,-0.0234375,0.01171875,-0.01171875,0.0,0.0,0.0
42018560,33412,0,1.005859375,-0.02734375,0.013671875,-0.013671875,0.0,0.0,0.0
42019811,33413,0,1.005859375,-0.02734375,0.0078125,-0.01953125,0.0,0.0,0.0
42021063,33414,0,1.005859375,-0.029296875,0.017578125,-0.01171875,0.0,0.0,0.0
42022314,33415,0,1.0078125,-0.025390625,0.01171875,-0.013671875,0.0,0.0,0.0
42023565,33416,0,1.005859375,-0.029296875,0.013671875,-0.015625,0.0,0.0,0.0
42024816,33417,0,1.001953125,-0.02734375,0.01953125,-0.0078125,0.0,0.0,0.0
42026066,33418,0,1.00390625,-0.03125,0.017578125,-0.013671875,0.0,0.0,0.0
42027318,33419,0,1.0,-0.03125,0.021484375,-0.009765625,0.0,0.0,0.0
42028569,33420,0,1.0,-0.033203125,0.015625,-0.017578125,0.0,0.0,0.0
42029819,33421,0,1.001953125,-0.033203125,0.0078125,-0.025390625,0.0,0.0,0.0
42031070,33422,0,1.001953125,-0.03125,0.0078125,-0.0234375,0.0,0.0,0.0
42032321,33423,0,1.0078125,-0.033203125,0.01171875,-0.021484375,0.0,0.0,0.0
42033572,33424,0,0.99609375,-0.033203125,0.01171875,-0.021484375,0.0,0.0,0.0
42034823,33425,0,1.001953125,-0.03125,0.01171875,-0.01953125,0.0,0.0,0.0
42036074,33426,0,1.005859375,-0.03515625,0.01953125,-0.015625,0.0,0.0,0.0
42037325,33427,0,1.00390625,-0.033203125,0.017578125,-0.015625,0.0,0.0,0.0
42038575,33428,0,1.0,-0.03515625,0.013671875,-0.021484375,0.0,0.0,0.0
42039825,33429,0,1.009765625,-0.03515625,0.013671875,-0.021484375,0.0,0.0,0.0
42041076,33430,0,1.005859375,-0.01953125,0.017578125,-0.001953125,0.0,0.0,0.0
42042326,33431,0,0.99609375,-0.029296875,0.013671875,-0.015625,0.0,0.0,0.0
42043577,33432,0,0.998046875,-0.03515625,0.025390625,-0.009765625,0.0,0.0,0.0
42044828,33433,0,1.001953125,-0.02734375,0.013671875,-0.013671875,0.0,0.0,0.0
42046078,33434,0,0.99609375,-0.03125,0.01953125,-0.01171875,0.0,0.0,0.0
42047329,33435,0,0.998046875,-0.03125,0.01953125,-0.01171875,0.0,0.0,0.0
42048581,33436,0,0.998046875,-0.03125,0.015625,-0.015625,0.0,0.0,0.0
42049833,33437,0,1.00390625,-0.033203125,0.013671875,-0.01953125,0.0,0.0,0.0
42051083,33438,0,1.001953125,-0.029296875,0.01171875,-0.017578125,0.0,0.0,0.0
42052333,33439,0,1.0,-0.029296875,0.015625,-0.013671875,0.0,0.0,0.0
42053584,33440,0,1.00390625,-0.02734375,0.015625,-0.01171875,0.0,0.0,0.0
42054835,33441,0,1.0078125,-0.02734375,0.015625,-0.01171875,0.0,0.0,0.0
42056085,33442,0,1.001953125,-0.02734375,0.015625,-0.01171875,0.0,0.0,0.0
42057336,33443,0,1.01171875,-0.02734375,0.01953125,-0.0078125,0.0,0.0,0.0
42058587,33444,0,0.99609375,-0.0234375,0.017578125,-0.005859375,0.0,0.0,0.0
42059838,33445,0,1.0078125,-0.02734375,0.017578125,-0.009765625,0.0,0.0,0.0
42061090,33446,0,0.998046875,-0.025390625,0.015625,-0.009765625,0.0,0.0,0.0
42062341,33447,0,1.005859375,-0.01953125,0.0234375,0.00390625,0.0,0.0,0.0
42063592,33448,0,1.001953125,-0.021484375,0.01953125,-0.001953125,0.0,0.0,0.0
42064844,33449,0,0.998046875,-0.021484375,0.017578125,-0.00390625,0.0,0.0,0.0
42066095,33450,0,1.005859375,-0.0234375,0.021484375,-0.001953125,0.0,0.0,0.0
42067346,33451,0,1.001953125,-0.0234375,0.015625,-0.0078125,0.0,0.0,0.0
42068597,33452,0,1.005859375,-0.01953125,0.017578125,-0.001953125,0.0,0.0,0.0
42069849,33453,0,1.009765625,-0.015625,0.01953125,0.00390625,0.0,0.0,0.0
42071099,33454,0,1.001953125,-0.0234375,0.01953125,-0.00390625,0.0,0.0,0.0
42072351,33455,0,1.001953125,-0.021484375,0.01953125,-0.001953125,0.0,0.0,0.0
42073602,33456,0,1.0,-0.0234375,0.015625,-0.0078125,0.0,0.0,0.0
42074854,33457,0,0.99609375,-0.017578125,0.015625,-0.001953125,0.0,0.0,0.0
42076104,33458,0,0.998046875,-0.01953125,0.015625,-0.00390625,0.0,0.0,0.0
42077354,33459,0,1.0,-0.0234375,0.017578125,-0.005859375,0.0,0.0,0.0
42078605,33460,0,0.998046875,-0.025390625,0.017578125,-0.0078125,0.0,0.0,0.0
42079855,33461,0,1.001953125,-0.021484375,0.017578125,-0.00390625,0.0,0.0,0.0
42081107,33462,0,1.00390625,-0.025390625,0.01171875,-0.013671875,0.0,0.0,0.0
42082358,33463,0,1.009765625,-0.02734375,0.013671875,-0.013671875,0.0,0.0,0.0
42083609,33464,0,1.00390625,-0.029296875,0.009765625,-0.01953125,0.0,0.0,0.0
42084859,33465,0,1.00390625,-0.03125,0.01171875,-0.01953125,0.0,0.0,0.0
42086111,33466,0,1.0078125,-0.0234375,0.015625,-0.0078125,0.0,0.0,0.0
42087362,33467,0,1.0,-0.025390625,0.015625,-0.009765625,0.0,0.0,0.0
42088613,33468,0,1.001953125,-0.025390625,0.009765625,-0.015625,0.0,0.0,0.0
42089865,33469,0,1.001953125,-0.02734375,0.013671875,-0.013671875,0.0,0.0,0.0
42091115,33470,0,1.001953125,-0.025390625,0.01171875,-0.013671875,0.0,0.0,0.0
42092365,33471,0,1.009765625,-0.029296875,0.01171875,-0.017578125,0.0,0.0,0.0
42093617,33472,0,1.00390625,-0.02734375,0.01171875,-0.015625,0.0,0.0,0.0
42094867,33473,0,1.0,-0.0234375,0.017578125,-0.005859375,0.0,0.0,0.0
42096118,33474,0,1.005859375,-0.033203125,0.0078125,-0.025390625,0.0,0.0,0.0
42097369,33475,0,1.005859375,-0.03515625,0.009765625,-0.025390625,0.0,0.0,0.0
42098620,33476,0,1.005859375,-0.033203125,0.013671875,-0.01953125,0.0,0.0,0.0
42099871,33477,0,1.001953125,-0.029296875,0.005859375,-0.0234375,0.0,0.0,0.0
42101123,33478,0,1.0,-0.02734375,0.013671875,-0.013671875,0.0,0.0,0.0
42102374,33479,0,1.005859375,-0.025390625,0.013671875,-0.01171875,0.0,0.0,0.0
42103624,33480,0,1.00390625,-0.029296875,0.01953125,-0.009765625,0.0,0.0,0.0
42104875,33481,0,1.0078125,-0.02734375,0.00390625,-0.0234375,0.0,0.0,0.0
42106125,33482,0,1.01171875,-0.029296875,0.013671875,-0.015625,0.0,0.0,0.0
42107375,33483,0,1.001953125,-0.02734375,0.0078125,-0.01953125,0.0,0.0,0.0
42108626,33484,0,1.005859375,-0.03125,0.013671875,-0.017578125,0.0,0.0,0.0
42109877,33485,0,1.001953125,-0.02734375,0.021484375,-0.005859375,0.0,0.0,0.0
42111129,33486,0,0.998046875,-0.029296875,0.017578125,-0.01171875,0.0,0.0,0.0
42112380,33487,0,1.001953125,-0.033203125,0.015625,-0.017578125,0.0,0.0,0.0
42113630,33488,0,1.00390625,-0.03125,0.017578125,-0.013671875,0.0,0.0,0.0
42114881,33489,0,1.00390625,-0.02734375,0.009765625,-0.017578125,0.0,0.0,0.0
42116133,33490,0,1.00390625,-0.02734375,0.015625,-0.01171875,0.0,0.0,0.0
42117384,33491,0,1.001953125,-0.029296875,0.015625,-0.013671875,0.0,0.0,-3.119976905730685e-37
42119886,33493,0,1.0078125,-0.029296875,0.01953125,-0.009765625,0.0,0.0,0.0
42121136,33494,0,1.001953125,-0.02734375,0.021484375,-0.005859375,0.0,0.0,0.0
42122386,33495,0,1.00390625,-0.025390625,0.01953125,-0.005859375,0.0,0.0,0.0
42123638,33496,0,1.00390625,-0.02734375,0.01953125,-0.0078125,0.0,0.0,0.0
42124888,33497,0,1.0078125,-0.025390625,0.021484375,-0.00390625,0.0,0.0,0.0
42126139,33498,0,1.0,-0.0234375,0.01953125,-0.00390625,0.0,0.0,0.0
42127391,33499,0,1.001953125,-0.0234375,0.0234375,0.0,0.0,0.0,0.0
42128641,33500,0,1.01171875,-0.021484375,0.013671875,-0.0078125,0.0,0.0,0.0
42129892,33501,0,0.998046875,-0.0234375,0.021484375,-0.001953125,0.0,0.0,0.0
42131142,33502,0,1.0,-0.0234375,0.013671875,-0.009765625,0.0,0.0,0.0
42132393,33503,0,1.001953125,-0.01953125,0.01953125,0.0,0.0,0.0,0.0
42133645,33504,0,0.998046875,-0.0234375,0.013671875,-0.009765625,0.0,0.0,0.0
42134895,33505,0,1.00390625,-0.0234375,0.01953125,-0.00390625,0.0,0.0,0.0
42136147,33506,0,1.00390625,-0.01953125,0.017578125,-0.001953125,0.0,0.0,0.0
42137397,33507,0,1.00390625,-0.025390625,0.01953125,-0.005859375,0.0,0.0,0.0
42138649,33508,0,1.001953125,-0.025390625,0.017578125,-0.0078125,0.0,0.0,0.0
42139899,33509,0,1.0,-0.021484375,0.021484375,0.0,0.0,0.0,0.0
42141149,33510,0,1.005859375,-0.0234375,0.01171875,-0.01171875,0.0,0.0,0.0
42142399,33511,0,1.0078125,-0.0234375,0.017578125,-0.005859375,0.0,0.0,0.0
42143650,33512,0,1.005859375,-0.02734375,0.015625,-0.01171875,0.0,0.0,0.0
42144902,33513,0,1.00390625,-0.025390625,0.01171875,-0.013671875,0.0,0.0,0.0
42146153,33514,0,0.99609375,-0.021484375,0.017578125,-0.00390625,0.0,0.0,0.0
42147404,33515,0,1.001953125,-0.0234375,0.017578125,-0.005859375,0.0,0.0,0.0
42148654,33516,0,1.005859375,-0.03125,0.017578125,-0.013671875,0.0,0.0,0.0
42149904,33517,0,1.0078125,-0.029296875,0.015625,-0.013671875,0.0,0.0,0.0
42151155,33518,0,0.998046875,-0.025390625,0.017578125,-0.0078125,0.0,0.0,0.0
42152407,33519,0,0.9921875,-0.02734375,0.017578125,-0.009765625,0.0,0.0,0.0
42153657,33520,0,1.001953125,-0.033203125,0.013671875,-0.01953125,0.0,0.0,0.0
42154909,33521,0,1.0078125,-0.03125,0.009765625,-0.021484375,0.0,0.0,0.0
42156159,33522,0,1.00390625,-0.029296875,0.01171875,-0.017578125,0.0,0.0,0.0
42157409,33523,0,1.001953125,-0.029296875,0.0,-0.029296875,0.0,0.0,0.0
42158661,33524,0,1.0,-0.029296875,0.009765625,-0.01953125,0.0,0.0,0.0
42159911,33525,0,1.005859375,-0.033203125,0.00390625,-0.029296875,0.0,0.0,0.0
42161161,33526,0,1.005859375,-0.033203125,0.01171875,-0.021484375,0.0,0.0,0.0
42162411,33527,0,1.00390625,-0.03125,0.01171875,-0.01953125,0.0,0.0,0.0
42163663,33528,0,1.00390625,-0.029296875,0.009765625,-0.01953125,0.0,0.0,0.0
42164913,33529,0,1.005859375,-0.02734375,0.009765625,-0.017578125,0.0,0.0,0.0
42166164,33530,0,1.005859375,-0.03125,0.0078125,-0.0234375,0.0,0.0,0.0
42167415,33531,0,1.001953125,-0.03515625,0.013671875,-0.021484375,0.0,0.0,0.0
42168666,33532,0,1.005859375,-0.033203125,0.015625,-0.017578125,0.0,0.0,0.0
42169916,33533,0,1.00390625,-0.02734375,0.013671875,-0.013671875,0.0,0.0,0.0
42171167,33534,0,1.005859375,-0.029296875,0.017578125,-0.01171875,0.0,0.0,0.0
42172417,33535,0,1.00390625,-0.02734375,0.01171875,-0.015625,0.0,0.0,0.0
42173668,33536,0,1.00390625,-0.029296875,0.015625,-0.013671875,0.0,0.0,0.0
42174920,33537,0,1.00390625,-0.0234375,0.017578125,-0.005859375,0.0,0.0,0.0
42176171,33538,0,0.998046875,-0.029296875,0.013671875,-0.015625,0.0,0.0,0.0
42177421,33539,0,1.001953125,-0.03125,0.015625,-0.015625,0.0,0.0,0.0
42178672,33540,0,0.998046875,-0.02734375,0.017578125,-0.009765625,0.0,0.0,0.0
42179924,33541,0,0.99609375,-0.02734375,0.013671875,-0.013671875,0.0,0.0,0.0
42181174,33542,0,0.998046875,-0.025390625,0.015625,-0.009765625,0.0,0.0,0.0
42182425,33543,0,1.005859375,-0.029296875,0.013671875,-0.015625,0.0,0.0,0.0
42183677,33544,0,1.005859375,-0.029296875,0.01171875,-0.017578125,0.0,0.0,0.0
42184927,33545,0,1.001953125,-0.025390625,0.01171875,-0.013671875,0.0,0.0,0.0
42186177,33546,0,1.001953125,-0.021484375,0.015625,-0.005859375,0.0,0.0,0.0
42187429,33547,0,0.998046875,-0.025390625,0.009765625,-0.015625,0.0,0.0,0.0
42188679,33548,0,1.0,-0.01953125,0.015625,-0.00390625,0.0,0.0,0.0
42189931,33549,0,1.005859375,-0.021484375,0.013671875,-0.0078125,0.0,0.0,0.0
42191181,33550,0,1.0,-0.0234375,0.01953125,-0.00390625,0.0,0.0,0.0
42192431,33551,0,1.0078125,-0.0234375,0.017578125,-0.005859375,0.0,0.0,0.0
42193683,33552,0,1.00390625,-0.025390625,0.021484375,-0.00390625,0.0,0.0,0.0
42194933,33553,0,1.005859375,-0.0234375,0.015625,-0.0078125,0.0,0.0,0.0
42196183,33554,0,1.0078125,-0.0234375,0.021484375,-0.001953125,0.0,0.0,0.0
42197434,33555,0,0.998046875,-0.01953125,0.017578125,-0.001953125,0.0,0.0,0.0
42198685,33556,0,1.001953125,-0.01953125,0.017578125,-0.001953125,0.0,0.0,0.0
42199936,33557,0,0.99609375,-0.0234375,0.015625,-0.0078125,0.0,0.0,0.0
42201186,33558,0,1.013671875,-0.025390625,0.01171875,-0.013671875,0.0,0.0,0.0
42202437,33559,0,1.0078125,-0.0234375,0.015625,-0.0078125,0.0,0.0,0.0
42203687,33560,0,1.009765625,-0.021484375,0.013671875,-0.0078125,0.0,0.0,0.0
42204937,33561,0,1.005859375,-0.029296875,0.01953125,-0.009765625,0.0,0.0,0.0
42206188,33562,0,1.005859375,-0.01953125,0.021484375,0.001953125,0.0,0.0,0.0
42207440,33563,0,0.99609375,-0.021484375,0.017578125,-0.00390625,0.0,0.0,0.0
42208690,33564,0,1.005859375,-0.01953125,0.015625,-0.00390625,0.0,0.0,0.0
42209942,33565,0,1.0078125,-0.0234375,0.015625,-0.0078125,0.0,0.0,0.0
42211193,33566,0,0.99609375,-0.029296875,0.01953125,-0.009765625,0.0,0.0,0.0
42212445,33567,0,1.005859375,-0.03125,0.017578125,-0.013671875,0.0,0.0,0.0
42213695,33568,0,1.005859375,-0.02734375,0.017578125,-0.009765625,0.0,0.0,0.0
42214947,33569,0,1.001953125,-0.02734375,0.01953125,-0.0078125,0.0,0.0,0.0
42216198,33570,0,1.001953125,-0.029296875,0.017578125,-0.01171875,0.0,0.0,0.0
42217449,33571,0,1.005859375,-0.02734375,0.009765625,-0.017578125,0.0,0.0,0.0
42218700,33572,0,1.001953125,-0.025390625,0.013671875,-0.01171875,0.0,0.0,0.0
42219952,33573,0,1.001953125,-0.03125,0.0078125,-0.0234375,0.0,0.0,0.0
42221203,33574,0,1.009765625,-0.03125,0.013671875,-0.017578125,0.0,0.0,0.0
42222454,33575,0,1.009765625,-0.02734375,0.013671875,-0.013671875,0.0,0.0,0.0
42223705,33576,0,1.005859375,-0.0234375,0.013671875,-0.009765625,0.0,0.0,0.0
42224957,33577,0,0.998046875,-0.029296875,0.017578125,-0.01171875,0.0,0.0,0.0
42226207,33578,0,1.00390625,-0.03125,0.017578125,-0.013671875,0.0,0.0,0.0
42227459,33579,0,1.001953125,-0.03125,0.017578125,-0.013671875,0.0,0.0,0.0
42228709,33580,0,1.0078125,-0.02734375,0.013671875,-0.013671875,0.0,0.0,0.0
42229959,33581,0,1.005859375,-0.0390625,0.013671875,-0.025390625,0.0,0.0,0.0
42231209,33582,0,1.00390625,-0.029296875,0.015625,-0.013671875,0.0,0.0,0.0
42232459,33583,0,1.009765625,-0.02734375,0.009765625,-0.017578125,0.0,0.0,0.0
42233711,33584,0,1.009765625,-0.037109375,0.01171875,-0.025390625,0.0,0.0,0.0
42234961,33585,0,1.009765625,-0.033203125,0.013671875,-0.01953125,0.0,0.0,0.0
42236213,33586,0,1.01171875,-0.037109375,0.013671875,-0.0234375,0.0,0.0,0.0
42237464,33587,0,1.00390625,-0.03515625,0.01953125,-0.015625,0.0,0.0,0.0
42238715,33588,0,1.009765625,-0.03125,0.015625,-0.015625,0.0,0.0,0.0
42239966,33589,0,1.0078125,-0.03125,0.015625,-0.015625,0.0,0.0,0.0
42241216,33590,0,1.005859375,-0.03125,0.013671875,-0.017578125,0.0,0.0,0.0
42242467,33591,0,1.0078125,-0.021484375,0.013671875,-0.0078125,0.0,0.0,0.0
42243718,33592,0,1.005859375,-0.025390625,0.0078125,-0.017578125,0.0,0.0,0.0
42244968,33593,0,0.998046875,-0.0234375,0.017578125,-0.005859375,0.0,0.0,0.0
42246219,33594,0,1.0,-0.029296875,0.01953125,-0.009765625,0.0,0.0,0.0
42247470,33595,0,1.005859375,-0.025390625,0.015625,-0.009765625,0.0,0.0,0.0
42248721,33596,0,1.00390625,-0.01953125,0.015625,-0.00390625,0.0,0.0,0.0
42249971,33597,0,1.001953125,-0.01953125,0.01953125,0.0,0.0,0.0,0.0
42251223,33598,0,1.005859375,-0.0234375,0.013671875,-0.009765625,0.0,0.0,0.0
42252473,33599,0,1.009765625,-0.029296875,0.017578125,-0.01171875,0.0,0.0,0.0
42253723,33600,0,0.99609375,-0.0234375,0.013671875,-0.009765625,0.0,0.0,0.0
42254975,33601,0,1.0078125,-0.025390625,0.009765625,-0.015625,0.0,0.0,0.0
42256226,33602,0,1.0,-0.021484375,0.015625,-0.005859375,0.0,0.0,0.0
42257476,33603,0,1.0,-0.01953125,0.015625,-0.00390625,0.0,0.0,0.0
42258728,33604,0,1.00390625,-0.029296875,0.01171875,-0.017578125,0.0,0.0,0.0
42259979,33605,0,1.001953125,-0.01953125,0.013671875,-0.005859375,0.0,0.0,0.0
42261229,33606,0,1.00390625,-0.013671875,0.015625,0.001953125,0.0,0.0,0.0
42262481,33607,0,1.013671875,-0.01953125,0.01953125,0.0,0.0,0.0,0.0
42263731,33608,0,1.001953125,-0.025390625,0.015625,-0.009765625,0.0,0.0,0.0
42264981,33609,0,1.009765625,-0.01953125,0.017578125,-0.001953125,0.0,0.0,0.0
42266232,33610,0,1.005859375,-0.021484375,0.013671875,-0.0078125,0.0,0.0,0.0
42267483,33611,0,0.998046875,-0.02734375,0.015625,-0.01171875,0.0,0.0,0.0
42268734,33612,0,1.0078125,-0.021484375,0.013671875,-0.0078125,0.0,0.0,0.0
42269986,33613,0,1.00390625,-0.025390625,0.013671875,-0.01171875,0.0,0.0,0.0
42271236,33614,0,1.0,-0.0234375,0.017578125,-0.005859375,0.0,0.0,0.0
42272486,33615,0,1.009765625,-0.02734375,0.013671875,-0.013671875,0.0,0.0,0.0
42273737,33616,0,1.00390625,-0.02734375,0.017578125,-0.009765625,0.0,0.0,0.0
42274987,33617,0,1.00390625,-0.021484375,0.01953125,-0.001953125,0.0,0.0,0.0
42276238,33618,0,1.005859375,-0.0234375,0.015625,-0.0078125,0.0,0.0,0.0
42277489,33619,0,1.005859375,-0.021484375,0.013671875,-0.0078125,0.0,0.0,0.0
42278740,33620,0,1.0078125,-0.0234375,0.01171875,-0.01171875,0.0,0.0,0.0
42279991,33621,0,1.0,-0.0234375,0.01171875,-0.01171875,0.0,0.0,0.0
42281241,33622,0,1.001953125,-0.029296875,0.015625,-0.013671875,0.0,0.0,0.0
42282492,33623,0,1.005859375,-0.02734375,0.013671875,-0.013671875,0.0,0.0,0.0
42283744,33624,0,1.0,-0.02734375,0.015625,-0.01171875,0.0,0.0,0.0
42284994,33625,0,1.00390625,-0.0234375,0.017578125,-0.005859375,0.0,0.0,0.0
42286245,33626,0,1.009765625,-0.025390625,0.005859375,-0.01953125,0.0,0.0,0.0
42287496,33627,0,1.001953125,-0.029296875,0.01953125,-0.009765625,0.0,0.0,0.0
42288747,33628,0,0.998046875,-0.02734375,0.017578125,-0.009765625,0.0,0.0,0.0
42289998,33629,0,0.998046875,-0.03125,0.0234375,-0.0078125,0.0,0.0,0.0
42291249,33630,0,1.0,-0.033203125,0.01171875,-0.021484375,0.0,0.0,0.0
42292499,33631,0,1.0,-0.029296875,0.009765625,-0.01953125,0.0,0.0,0.0
42293751,33632,0,0.990234375,-0.029296875,0.017578125,-0.01171875,0.0,0.0,0.0
42295002,33633,0,1.00390625,-0.029296875,0.017578125,-0.01171875,0.0,0.0,0.0
42296253,33634,0,1.00390625,-0.029296875,0.013671875,-0.015625,0.0,0.0,0.0
42297503,33635,0,0.998046875,-0.029296875,0.013671875,-0.015625,0.0,0.0,0.0
42298755,33636,0,1.001953125,-0.029296875,0.013671875,-0.015625,0.0,0.0,0.0
42300005,33637,0,1.005859375,-0.029296875,0.021484375,-0.0078125,0.0,0.0,0.0
42301256,33638,0,0.998046875,-0.02734375,0.017578125,-0.009765625,0.0,0.0,0.0
42302506,33639,0,1.001953125,-0.02734375,0.015625,-0.01171875,0.0,0.0,0.0
42303757,33640,0,1.001953125,-0.029296875,0.015625,-0.013671875,0.0,0.0,0.0
42305008,33641,0,1.00390625,-0.025390625,0.015625,-0.009765625,0.0,0.0,0.0
42306258,33642,0,1.00390625,-0.029296875,0.013671875,-0.015625,0.0,0.0,0.0
42307508,33643,0,1.00390625,-0.02734375,0.021484375,-0.005859375,0.0,0.0,0.0
42308759,33644,0,1.005859375,-0.02734375,0.017578125,-0.009765625,0.0,0.0,0.0
42310009,33645,0,1.0078125,-0.03125,0.013671875,-0.017578125,0.0,0.0,0.0
42311259,33646,0,1.009765625,-0.025390625,0.017578125,-0.0078125,0.0,0.0,0.0
42312510,33647,0,1.0,-0.02734375,0.021484375,-0.005859375,0.0,0.0,0.0
42313762,33648,0,1.005859375,-0.03125,0.0078125,-0.0234375,0.0,0.0,0.0
42315012,33649,0,1.00390625,-0.029296875,0.0234375,-0.005859375,0.0,0.0,0.0
42316271,33650,0,1.001953125,-0.03125,0.013671875,-0.017578125,0.0,0.0,0.0
42317521,33651,0,0.998046875,-0.025390625,0.015625,-0.009765625,0.0,0.0,0.0
42318773,33652,0,1.00390625,-0.0234375,0.009765625,-0.013671875,0.0,0.0,0.0
42320023,33653,0,1.0,-0.0234375,0.009765625,-0.013671875,0.0,0.0,0.0
42321274,33654,0,1.015625,-0.025390625,0.015625,-0.009765625,0.0,0.0,0.0
42322525,33655,0,1.0078125,-0.0234375,0.015625,-0.0078125,0.0,0.0,0.0
42323776,33656,0,1.005859375,-0.029296875,0.01953125,-0.009765625,0.0,0.0,0.0
42325026,33657,0,1.005859375,-0.025390625,0.015625,-0.009765625,0.0,0.0,0.0
42326276,33658,0,0.998046875,-0.0234375,0.017578125,-0.005859375,0.0,0.0,0.0
42327527,33659,0,1.0,-0.03125,0.017578125,-0.013671875,0.0,0.0,0.0
42328778,33660,0,1.001953125,-0.02734375,0.013671875,-0.013671875,0.0,0.0,0.0
42330029,33661,0,1.001953125,-0.025390625,0.01953125,-0.005859375,0.0,0.0,0.0
42331280,33662,0,1.0,-0.029296875,0.013671875,-0.015625,0.0,0.0,0.0
42332531,33663,0,1.001953125,-0.021484375,0.015625,-0.005859375,0.0,0.0,0.0
42333783,33664,0,1.005859375,-0.0234375,0.021484375,-0.001953125,0.0,0.0,0.0
42335034,33665,0,1.009765625,-0.025390625,0.009765625,-0.015625,0.0,0.0,0.0
42336286,33666,0,1.00390625,-0.02734375,0.015625,-0.01171875,0.0,0.0,0.0
42337537,33667,0,1.009765625,-0.0234375,0.009765625,-0.013671875,0.0,0.0,0.0
42338789,33668,0,0.9921875,-0.029296875,0.013671875,-0.015625,0.0,0.0,0.0
42340039,33669,0,1.0,-0.021484375,0.017578125,-0.00390625,0.0,0.0,0.0
42341289,33670,0,1.005859375,-0.021484375,0.017578125,-0.00390625,0.0,0.0,0.0
42342541,33671,0,1.005859375,-0.02734375,0.01171875,-0.015625,0.0,0.0,0.0
42343792,33672,0,1.009765625,-0.025390625,0.015625,-0.009765625,0.0,0.0,0.0
42345044,33673,0,1.001953125,-0.02734375,0.013671875,-0.013671875,0.0,0.0,0.0
42346294,33674,0,0.998046875,-0.025390625,0.015625,-0.009765625,0.0,0.0,0.0
42347544,33675,0,1.0,-0.03125,0.01953125,-0.01171875,0.0,0.0,0.0
42348795,33676,0,1.00390625,-0.025390625,0.015625,-0.009765625,0.0,0.0,0.0
42350045,33677,0,1.005859375,-0.029296875,0.013671875,-0.015625,0.0,0.0,0.0
42351295,33678,0,1.001953125,-0.025390625,0.015625,-0.009765625,0.0,0.0,0.0
42352546,33679,0,1.005859375,-0.025390625,0.021484375,-0.00390625,0.0,0.0,0.0
42353797,33680,0,1.0078125,-0.033203125,0.009765625,-0.0234375,0.0,0.0,0.0
42355048,33681,0,1.005859375,-0.029296875,0.01171875,-0.017578125,0.0,0.0,0.0
42356299,33682,0,1.001953125,-0.02734375,0.01953125,-0.0078125,0.0,0.0,0.0
42357550,33683,0,1.001953125,-0.021484375,0.015625,-0.005859375,0.0,0.0,0.0
42358800,33684,0,1.00390625,-0.0234375,0.015625,-0.0078125,0.0,0.0,0.0
42360052,33685,0,1.005859375,-0.02734375,0.013671875,-0.013671875,0.0,0.0,0.0
42361303,33686,0,1.005859375,-0.025390625,0.009765625,-0.015625,0.0,0.0,0.0
42362554,33687,0,1.005859375,-0.02734375,0.013671875,-0.013671875,0.0,0.0,0.0
42363805,33688,0,0.998046875,-0.0234375,0.0078125,-0.015625,0.0,0.0,0.0
42365057,33689,0,1.005859375,-0.02734375,0.0078125,-0.01953125,0.0,0.0,0.0
42366308,33690,0,1.00390625,-0.02734375,0.017578125,-0.009765625,0.0,0.0,0.0
42367560,33691,0,1.00390625,-0.0234375,0.021484375,-0.001953125,0.0,0.0,0.0
42368811,33692,0,1.015625,-0.03125,0.01171875,-0.01953125,0.0,0.0,0.0
42370063,33693,0,1.001953125,-0.03125,0.017578125,-0.013671875,0.0,0.0,0.0
42371314,33694,0,1.0,-0.025390625,0.017578125,-0.0078125,0.0,0.0,0.0
42372565,33695,0,1.01171875,-0.025390625,0.01953125,-0.005859375,0.0,0.0,0.0
42373816,33696,0,1.0,-0.029296875,0.015625,-0.013671875,0.0,0.0,0.0
42375066,33697,0,1.005859375,-0.02734375,0.017578125,-0.009765625,0.0,0.0,0.0
42376318,33698,0,1.005859375,-0.029296875,0.015625,-0.013671875,0.0,0.0,0.0
42377569,33699,0,1.00390625,-0.025390625,0.015625,-0.009765625,0.0,0.0,0.0
42378819,33700,0,1.001953125,-0.02734375,0.015625,-0.01171875,0.0,0.0,0.0
42380070,33701,0,1.00390625,-0.02734375,0.01171875,-0.015625,0.0,0.0,0.0
42381321,33702,0,1.00390625,-0.029296875,0.017578125,-0.01171875,0.0,0.0,0.0
42382572,33703,0,1.001953125,-0.02734375,0.013671875,-0.013671875,0.0,0.0,0.0
42383823,33704,0,1.001953125,-0.025390625,0.015625,-0.009765625,0.0,0.0,0.0
42385074,33705,0,1.0,-0.029296875,0.013671875,-0.015625,0.0,0.0,0.0
42386325,33706,0,1.005859375,-0.025390625,0.01953125,-0.005859375,0.0,0.0,0.0
42387575,33707,0,1.005859375,-0.02734375,0.015625,-0.01171875,0.0,0.0,0.0
42388825,33708,0,1.001953125,-0.025390625,0.015625,-0.009765625,0.0,0.0,0.0
42390076,33709,0,1.001953125,-0.021484375,0.017578125,-0.00390625,0.0,0.0,0.0
42391326,33710,0,1.009765625,-0.029296875,0.009765625,-0.01953125,0.0,0.0,0.0
42392577,33711,0,1.001953125,-0.03125,0.01171875,-0.01953125,0.0,0.0,0.0
42393828,33712,0,0.998046875,-0.02734375,0.015625,-0.01171875,0.0,0.0,0.0
42395078,33713,0,1.005859375,-0.025390625,0.0078125,-0.017578125,0.0,0.0,0.0
42396329,33714,0,1.005859375,-0.01953125,0.009765625,-0.009765625,0.0,0.0,0.0
42397581,33715,0,1.0078125,-0.021484375,0.017578125,-0.00390625,0.0,0.0,0.0
42398833,33716,0,0.99609375,-0.021484375,0.025390625,0.00390625,0.0,0.0,0.0
42400083,33717,0,0.994140625,-0.0234375,0.021484375,-0.001953125,0.0,0.0,0.0
42401333,33718,0,1.005859375,-0.0234375,0.017578125,-0.005859375,0.0,0.0,0.0
42402584,33719,0,1.00390625,-0.02734375,0.017578125,-0.009765625,0.0,0.0,0.0
42403835,33720,0,1.005859375,-0.03125,0.017578125,-0.013671875,0.0,0.0,0.0
42405085,33721,0,1.001953125,-0.03125,0.009765625,-0.021484375,0.0,0.0,0.0
42406336,33722,0,1.0,-0.02734375,0.015625,-0.01171875,0.0,0.0,0.0
42407587,33723,0,1.00390625,-0.02734375,0.021484375,-0.005859375,0.0,0.0,0.0
42408838,33724,0,1.0,-0.02734375,0.015625,-0.01171875,0.0,0.0,0.0
42410090,33725,0,0.998046875,-0.02734375,0.013671875,-0.013671875,0.0,0.0,0.0
42411341,33726,0,1.001953125,-0.01953125,0.017578125,-0.001953125,0.0,0.0,0.0
42412592,33727,0,1.00390625,-0.0234375,0.01953125,-0.00390625,0.0,0.0,0.0
42413844,33728,0,1.0078125,-0.0234375,0.013671875,-0.009765625,0.0,0.0,0.0
42415095,33729,0,1.0,-0.02734375,0.017578125,-0.009765625,0.0,0.0,0.0
42416346,33730,0,1.0078125,-0.025390625,0.013671875,-0.01171875,0.0,0.0,0.0
42417597,33731,0,1.009765625,-0.025390625,0.01953125,-0.005859375,0.0,0.0,0.0
42418849,33732,0,1.0,-0.02734375,0.0234375,-0.00390625,0.0,0.0,0.0
42420099,33733,0,0.99609375,-0.03125,0.013671875,-0.017578125,0.0,0.0,0.0
42421351,33734,0,1.0,-0.03125,0.009765625,-0.021484375,0.0,0.0,0.0
42422602,33735,0,1.0078125,-0.029296875,0.017578125,-0.01171875,0.0,0.0,0.0
42423854,33736,0,1.0078125,-0.03515625,0.017578125,-0.017578125,0.0,0.0,0.0
42425104,33737,0,1.0,-0.029296875,0.013671875,-0.015625,0.0,0.0,0.0
42426354,33738,0,1.005859375,-0.02734375,0.005859375,-0.021484375,0.0,0.0,0.0
42427605,33739,0,1.00390625,-0.0234375,0.01171875,-0.01171875,0.0,0.0,0.0
42428855,33740,0,1.0,-0.02734375,0.013671875,-0.013671875,0.0,0.0,0.0
42430107,33741,0,1.005859375,-0.02734375,0.017578125,-0.009765625,0.0,0.0,0.0
42431358,33742,0,0.998046875,-0.0234375,0.017578125,-0.005859375,0.0,0.0,0.0
42432609,33743,0,1.0,-0.025390625,0.017578125,-0.0078125,0.0,0.0,0.0
42433859,33744,0,1.001953125,-0.025390625,0.017578125,-0.0078125,0.0,0.0,0.0
42435111,33745,0,1.00390625,-0.033203125,0.017578125,-0.015625,0.0,0.0,0.0
42436362,33746,0,1.0,-0.02734375,0.0234375,-0.00390625,0.0,0.0,0.0
42437613,33747,0,0.998046875,-0.03125,0.01953125,-0.01171875,0.0,0.0,0.0
42438865,33748,0,1.0078125,-0.0234375,0.015625,-0.0078125,0.0,0.0,0.0
42440115,33749,0,1.00390625,-0.029296875,0.0078125,-0.021484375,0.0,0.0,0.0
42441365,33750,0,1.0078125,-0.02734375,0.009765625,-0.017578125,0.0,0.0,0.0
42442617,33751,0,1.001953125,-0.0234375,0.017578125,-0.005859375,0.0,0.0,0.0
42443867,33752,0,1.005859375,-0.025390625,0.015625,-0.009765625,0.0,0.0,0.0
42445118,33753,0,1.001953125,-0.029296875,0.001953125,-0.02734375,0.0,0.0,0.0
42446369,33754,0,1.001953125,-0.02734375,0.005859375,-0.021484375,0.0,0.0,0.0
42447620,33755,0,1.001953125,-0.033203125,0.0078125,-0.025390625,0.0,0.0,0.0
42448871,33756,0,1.00390625,-0.025390625,0.01953125,-0.005859375,0.0,0.0,0.0
42450123,33757,0,0.998046875,-0.025390625,0.013671875,-0.01171875,0.0,0.0,0.0
42451374,33758,0,1.0,-0.025390625,0.0234375,-0.001953125,0.0,0.0,0.0
42452624,33759,0,1.005859375,-0.029296875,0.017578125,-0.01171875,0.0,0.0,0.0
42453875,33760,0,0.99609375,-0.029296875,0.021484375,-0.0078125,0.0,0.0,0.0
42455125,33761,0,1.0,-0.01953125,0.009765625,-0.009765625,0.0,0.0,0.0
42456375,33762,0,1.005859375,-0.025390625,0.009765625,-0.015625,0.0,0.0,0.0
42457626,33763,0,1.001953125,-0.021484375,0.015625,-0.005859375,0.0,0.0,0.0
42458877,33764,0,1.0078125,-0.025390625,0.01171875,-0.013671875,0.0,0.0,0.0
42460129,33765,0,1.0078125,-0.021484375,0.017578125,-0.00390625,0.0,0.0,0.0
42461380,33766,0,1.005859375,-0.0234375,0.01171875,-0.01171875,0.0,0.0,0.0
42462630,33767,0,1.0,-0.02734375,0.015625,-0.01171875,0.0,0.0,0.0
42463881,33768,0,1.0,-0.0234375,0.017578125,-0.005859375,0.0,0.0,0.0
42465133,33769,0,1.0,-0.025390625,0.01953125,-0.005859375,0.0,0.0,0.0
42466384,33770,0,1.0,-0.025390625,0.013671875,-0.01171875,0.0,0.0,0.0
42467634,33771,0,1.0078125,-0.029296875,0.017578125,-0.01171875,0.0,0.0,0.0
42468886,33772,0,1.001953125,-0.029296875,0.01953125,-0.009765625,0.0,0.0,0.0
42470136,33773,0,1.00390625,-0.0234375,0.013671875,-0.009765625,0.0,0.0,0.0
42471386,33774,0,0.998046875,-0.0234375,0.017578125,-0.005859375,0.0,0.0,0.0
42472638,33775,0,1.0078125,-0.02734375,0.005859375,-0.021484375,0.0,0.0,0.0
42473888,33776,0,0.99609375,-0.025390625,0.01171875,-0.013671875,0.0,0.0,0.0
42475139,33777,0,1.00390625,-0.021484375,0.013671875,-0.0078125,0.0,0.0,0.0
42476391,33778,0,1.001953125,-0.0234375,0.017578125,-0.005859375,0.0,0.0,0.0
42477641,33779,0,1.001953125,-0.029296875,0.0234375,-0.005859375,0.0,0.0,0.0
42478892,33780,0,1.005859375,-0.029296875,0.013671875,-0.015625,0.0,0.0,0.0
42480142,33781,0,1.005859375,-0.029296875,0.01953125,-0.009765625,0.0,0.0,0.0
42481393,33782,0,1.001953125,-0.025390625,0.01953125,-0.005859375,0.0,0.0,0.0
42482645,33783,0,1.001953125,-0.025390625,0.01953125,-0.005859375,0.0,0.0,0.0
42483895,33784,0,1.001953125,-0.02734375,0.01171875,-0.015625,0.0,0.0,0.0
42485147,33785,0,1.001953125,-0.025390625,0.015625,-0.009765625,0.0,0.0,0.0
42486397,33786,0,1.00390625,-0.02734375,0.015625,-0.01171875,0.0,0.0,0.0
42487649,33787,0,1.005859375,-0.025390625,0.017578125,-0.0078125,0.0,0.0,0.0
42488899,33788,0,1.001953125,-0.02734375,0.015625,-0.01171875,0.0,0.0,0.0
42490149,33789,0,1.009765625,-0.029296875,0.01171875,-0.017578125,0.0,0.0,0.0
42491399,33790,0,1.00390625,-0.033203125,0.01171875,-0.021484375,0.0,0.0,0.0
42492650,33791,0,1.00390625,-0.02734375,0.015625,-0.01171875,0.0,0.0,0.0
42493902,33792,0,1.0078125,-0.029296875,0.017578125,-0.01171875,0.0,0.0,0.0
42495153,33793,0,1.001953125,-0.025390625,0.01171875,-0.013671875,0.0,0.0,0.0
42496404,33794,0,1.005859375,-0.02734375,0.015625,-0.01171875,0.0,0.0,0.0
42497654,33795,0,1.0078125,-0.029296875,0.01953125,-0.009765625,0.0,0.0,0.0
42498904,33796,0,1.001953125,-0.03125,0.009765625,-0.021484375,0.0,0.0,0.0
42500155,33797,0,1.005859375,-0.025390625,0.015625,-0.009765625,0.0,0.0,0.0
42501407,33798,0,0.99609375,-0.02734375,0.015625,-0.01171875,0.0,0.0,0.0
42502657,33799,0,1.001953125,-0.02734375,0.005859375,-0.021484375,0.0,0.0,0.0
42503909,33800,0,1.0,-0.025390625,0.009765625,-0.015625,0.0,0.0,0.0
42505159,33801,0,1.005859375,-0.02734375,0.01953125,-0.0078125,0.0,0.0,0.0
42506409,33802,0,1.005859375,-0.025390625,0.017578125,-0.0078125,0.0,0.0,0.0
42507661,33803,0,1.005859375,-0.025390625,0.01171875,-0.013671875,0.0,0.0,0.0
42508911,33804,0,1.00390625,-0.02734375,0.021484375,-0.005859375,0.0,0.0,0.0
42510161,33805,0,1.001953125,-0.025390625,0.015625,-0.009765625,0.0,0.0,0.0
42511411,33806,0,1.001953125,-0.0234375,0.01171875,-0.01171875,0.0,0.0,0.0
42512663,33807,0,1.0,-0.029296875,0.01953125,-0.009765625,0.0,0.0,0.0
42513913,33808,0,1.001953125,-0.02734375,0.01953125,-0.0078125,0.0,0.0,0.0
42515164,33809,0,1.0,-0.02734375,0.01953125,-0.0078125,0.0,0.0,0.0
42516415,33810,0,1.00390625,-0.025390625,0.017578125,-0.0078125,0.0,0.0,0.0
42517666,33811,0,0.998046875,-0.02734375,0.01171875,-0.015625,0.0,0.0,0.0
42518916,33812,0,1.001953125,-0.02734375,0.015625,-0.01171875,0.0,0.0,0.0
42520167,33813,0,0.998046875,-0.021484375,0.017578125,-0.00390625,0.0,0.0,0.0
42521417,33814,0,1.009765625,-0.021484375,0.017578125,-0.00390625,0.0,0.0,0.0
42522668,33815,0,1.00390625,-0.021484375,0.013671875,-0.0078125,0.0,0.0,0.0
42523920,33816,0,1.005859375,-0.029296875,0.013671875,-0.015625,0.0,0.0,0.0
42525171,33817,0,1.00390625,-0.01953125,0.017578125,-0.001953125,0.0,0.0,0.0
42526421,33818,0,0.998046875,-0.025390625,0.017578125,-0.0078125,0.0,0.0,0.0
42527672,33819,0,1.00390625,-0.0234375,0.009765625,-0.013671875,0.0,0.0,0.0
42528924,33820,0,1.00390625,-0.021484375,0.017578125,-0.00390625,0.0,0.0,0.0
42530174,33821,0,1.00390625,-0.0234375,0.015625,-0.0078125,0.0,0.0,0.0
42531425,33822,0,1.009765625,-0.02734375,0.013671875,-0.013671875,0.0,0.0,0.0
42532677,33823,0,1.00390625,-0.02734375,0.013671875,-0.013671875,0.0,0.0,0.0
42533927,33824,0,1.00390625,-0.0234375,0.01171875,-0.01171875,0.0,0.0,0.0
42535177,33825,0,0.99609375,-0.025390625,0.017578125,-0.0078125,0.0,0.0,0.0
42536429,33826,0,1.00390625,-0.0234375,0.015625,-0.0078125,0.0,0.0,0.0
42537679,33827,0,1.001953125,-0.025390625,0.01953125,-0.005859375,0.0,0.0,0.0
42538931,33828,0,1.0,-0.025390625,0.025390625,0.0,0.0,0.0,0.0
42540181,33829,0,1.00390625,-0.021484375,0.01171875,-0.009765625,0.0,0.0,0.0
42541431,33830,0,1.009765625,-0.029296875,0.013671875,-0.015625,0.0,0.0,0.0
42542683,33831,0,1.005859375,-0.025390625,0.01171875,-0.013671875,0.0,0.0,0.0
42543933,33832,0,1.0078125,-0.029296875,0.021484375,-0.0078125,0.0,0.0,0.0
42545183,33833,0,1.0,-0.029296875,0.013671875,-0.015625,0.0,0.0,0.0
42546434,33834,0,1.0,-0.0234375,0.013671875,-0.009765625,0.0,0.0,0.0
42547685,33835,0,1.005859375,-0.025390625,0.015625,-0.009765625,0.0,0.0,0.0
42548936,33836,0,1.001953125,-0.02734375,0.013671875,-0.013671875,0.0,0.0,0.0
42550186,33837,0,1.0,-0.029296875,0.01953125,-0.009765625,0.0,0.0,0.0
42551437,33838,0,1.0078125,-0.029296875,0.005859375,-0.0234375,0.0,0.0,0.0
42552687,33839,0,1.00390625,-0.025390625,0.013671875,-0.01171875,0.0,0.0,0.0
42553937,33840,0,1.01171875,-0.0234375,0.015625,-0.0078125,0.0,0.0,0.0
42555188,33841,0,1.001953125,-0.02734375,0.013671875,-0.013671875,0.0,0.0,0.0
42556440,33842,0,1.00390625,-0.02734375,0.0234375,-0.00390625,0.0,0.0,0.0
42557690,33843,0,0.998046875,-0.021484375,0.021484375,0.0,0.0,0.0,0.0
42558942,33844,0,1.009765625,-0.01953125,0.01953125,0.0,0.0,0.0,0.0
42560193,33845,0,0.998046875,-0.025390625,0.017578125,-0.0078125,0.0,0.0,0.0
42561445,33846,0,0.998046875,-0.029296875,0.017578125,-0.01171875,0.0,0.0,0.0
42562695,33847,0,1.005859375,-0.025390625,0.017578125,-0.0078125,0.0,0.0,0.0
42563947,33848,0,1.0078125,-0.025390625,0.015625,-0.009765625,0.0,0.0,0.0
42565198,33849,0,1.0,-0.029296875,0.01171875,-0.017578125,0.0,0.0,0.0
42566450,33850,0,1.0,-0.02734375,0.013671875,-0.013671875,0.0,0.0,0.0
42567700,33851,0,1.00390625,-0.029296875,0.015625,-0.013671875,0.0,0.0,0.0
42568952,33852,0,1.00390625,-0.025390625,0.009765625,-0.015625,0.0,0.0,0.0
42570203,33853,0,1.005859375,-0.029296875,0.013671875,-0.015625,0.0,0.0,0.0
42571454,33854,0,1.0078125,-0.0234375,0.021484375,-0.001953125,0.0,0.0,0.0
42572705,33855,0,1.00390625,-0.025390625,0.017578125,-0.0078125,0.0,0.0,0.0
42573957,33856,0,1.00390625,-0.025390625,0.017578125,-0.0078125,0.0,0.0,0.0
42575207,33857,0,1.005859375,-0.029296875,0.01171875,-0.017578125,0.0,0.0,0.0
42576459,33858,0,0.998046875,-0.025390625,0.01953125,-0.005859375,0.0,0.0,0.0
42577709,33859,0,1.001953125,-0.02734375,0.015625,-0.01171875,0.0,0.0,0.0
42578959,33860,0,1.0,-0.029296875,0.013671875,-0.015625,0.0,0.0,0.0
42580209,33861,0,1.001953125,-0.0234375,0.01953125,-0.00390625,0.0,0.0,0.0
42581459,33862,0,1.0,-0.009765625,0.013671875,0.00390625,0.0,0.0,0.0
42582711,33863,0,1.01171875,-0.00390625,0.021484375,0.017578125,0.0,0.0,0.0
42583961,33864,0,1.01171875,0.021484375,0.03515625,0.056640625,0.0,0.0,0.0
42585213,33865,0,1.009765625,0.041015625,0.037109375,0.078125,0.0,0.0,0.0
42586464,33866,0,1.0078125,0.0390625,0.046875,0.0859375,0.0,0.0,0.0
42587715,33867,0,0.99609375,0.013671875,0.03125,0.044921875,0.0,0.0,0.0
42588966,33868,0,1.0,-0.01171875,0.021484375,0.009765625,0.0,0.0,0.0
42590216,33869,0,1.0078125,-0.02734375,0.01171875,-0.015625,0.0,0.0,0.0
42591467,33870,0,1.001953125,-0.05078125,0.0078125,-0.04296875,0.0,0.0,0.0
42592718,33871,0,1.001953125,-0.0703125,0.001953125,-0.068359375,0.0,0.0,0.0
42593968,33872,0,1.0078125,-0.068359375,-0.001953125,-0.0703125,0.0,0.0,0.0
42595219,33873,0,1.001953125,-0.05859375,0.001953125,-0.056640625,0.0,0.0,0.0
42596470,33874,0,1.0,-0.046875,0.001953125,-0.044921875,0.0,0.0,0.0
42597721,33875,0,1.0078125,-0.046875,0.009765625,-0.037109375,0.0,0.0,0.0
42598971,33876,0,1.005859375,-0.044921875,0.013671875,-0.03125,0.0,0.0,0.0
42600223,33877,0,1.001953125,-0.029296875,0.009765625,-0.01953125,0.0,0.0,0.0
42601473,33878,0,1.005859375,-0.0234375,0.01171875,-0.01171875,0.0,0.0,0.0
42602723,33879,0,1.00390625,-0.017578125,0.015625,-0.001953125,0.0,0.0,0.0
42603975,33880,0,1.00390625,-0.021484375,0.013671875,-0.0078125,0.0,0.0,0.0
42605226,33881,0,0.998046875,-0.0234375,0.013671875,-0.009765625,0.0,0.0,0.0
42606476,33882,0,1.009765625,-0.02734375,0.01171875,-0.015625,0.0,0.0,0.0
42607728,33883,0,1.005859375,-0.0234375,0.013671875,-0.009765625,0.0,0.0,0.0
42608979,33884,0,1.001953125,-0.029296875,0.01953125,-0.009765625,0.0,0.0,0.0
42610229,33885,0,0.998046875,-0.03515625,0.01171875,-0.0234375,0.0,0.0,0.0
42611481,33886,0,1.00390625,-0.03515625,0.009765625,-0.025390625,0.0,0.0,0.0
42612731,33887,0,1.0078125,-0.04296875,0.013671875,-0.029296875,0.0,0.0,0.0
42613981,33888,0,1.0,-0.03515625,0.013671875,-0.021484375,0.0,0.0,0.0
42615232,33889,0,1.0,-0.037109375,0.013671875,-0.0234375,0.0,0.0,0.0
42616483,33890,0,0.998046875,-0.03125,0.013671875,-0.017578125,0.0,0.0,0.0
42617734,33891,0,1.005859375,-0.02734375,0.017578125,-0.009765625,0.0,0.0,0.0
42618986,33892,0,1.001953125,-0.021484375,0.01171875,-0.009765625,0.0,0.0,0.0
42620236,33893,0,1.005859375,-0.02734375,0.015625,-0.01171875,0.0,0.0,0.0
42621486,33894,0,1.0078125,-0.02734375,0.013671875,-0.013671875,0.0,0.0,0.0
42622737,33895,0,1.00390625,-0.01953125,0.013671875,-0.005859375,0.0,0.0,0.0
42623987,33896,0,1.00390625,-0.0234375,0.015625,-0.0078125,0.0,0.0,0.0
42625238,33897,0,1.0,-0.021484375,0.015625,-0.005859375,0.0,0.0,0.0
42626489,33898,0,1.001953125,-0.0234375,0.017578125,-0.005859375,0.0,0.0,0.0
42627740,33899,0,1.0,-0.0234375,0.017578125,-0.005859375,0.0,0.0,0.0
42628991,33900,0,1.005859375,-0.02734375,0.01953125,-0.0078125,0.0,0.0,0.0
42630241,33901,0,1.009765625,-0.01953125,0.017578125,-0.001953125,0.0,0.0,0.0
42631492,33902,0,1.0078125,-0.0234375,0.017578125,-0.005859375,0.0,0.0,0.0
42632744,33903,0,1.009765625,-0.02734375,0.021484375,-0.005859375,0.0,0.0,0.0
42633994,33904,0,1.005859375,-0.0234375,0.015625,-0.0078125,0.0,0.0,0.0
42635245,33905,0,0.994140625,-0.029296875,0.01953125,-0.009765625,0.0,0.0,0.0
42636496,33906,0,1.005859375,-0.0234375,0.015625,-0.0078125,0.0,0.0,0.0
42637747,33907,0,1.001953125,-0.01953125,0.017578125,-0.001953125,0.0,0.0,0.0
42638998,33908,0,1.0078125,-0.021484375,0.013671875,-0.0078125,0.0,0.0,0.0
42640249,33909,0,1.0078125,-0.017578125,0.01171875,-0.005859375,0.0,0.0,0.0
42641499,33910,0,1.0078125,-0.017578125,0.01953125,0.001953125,0.0,0.0,0.0
42642751,33911,0,1.00390625,-0.015625,0.01953125,0.00390625,0.0,0.0,0.0
42644002,33912,0,1.0,-0.017578125,0.021484375,0.00390625,0.0,0.0,0.0
42645253,33913,0,1.0,-0.021484375,0.017578125,-0.00390625,0.0,0.0,0.0
42646503,33914,0,1.005859375,-0.01953125,0.017578125,-0.001953125,0.0,0.0,0.0
42647755,33915,0,0.998046875,-0.025390625,0.01953125,-0.005859375,0.0,0.0,0.0
42649005,33916,0,1.005859375,-0.03125,0.015625,-0.015625,0.0,0.0,0.0
42650256,33917,0,1.009765625,-0.029296875,0.015625,-0.013671875,0.0,0.0,0.0
42651506,33918,0,1.00390625,-0.03125,0.017578125,-0.013671875,0.0,0.0,0.0
42652757,33919,0,1.0,-0.029296875,0.01171875,-0.017578125,0.0,0.0,0.0
42654008,33920,0,1.00390625,-0.025390625,0.01953125,-0.005859375,0.0,0.0,0.0
42655258,33921,0,1.001953125,-0.029296875,0.017578125,-0.01171875,0.0,0.0,0.0
42656508,33922,0,1.001953125,-0.03125,0.017578125,-0.013671875,0.0,0.0,0.0
42657759,33923,0,1.0,-0.029296875,0.009765625,-0.01953125,0.0,0.0,0.0
42659009,33924,0,1.0078125,-0.029296875,0.015625,-0.013671875,0.0,0.0,0.0
42660259,33925,0,1.013671875,-0.025390625,0.01953125,-0.005859375,0.0,0.0,0.0
42661510,33926,0,1.0078125,-0.01953125,0.013671875,-0.005859375,0.0,0.0,0.0
42662762,33927,0,1.01171875,-0.021484375,0.021484375,0.0,0.0,0.0,0.0
42664012,33928,0,1.0,-0.029296875,0.017578125,-0.01171875,0.0,0.0,0.0
42665271,33929,0,1.005859375,-0.02734375,0.021484375,-0.005859375,0.0,0.0,0.0
42666521,33930,0,1.00390625,-0.029296875,0.017578125,-0.01171875,0.0,0.0,0.0
42667773,33931,0,1.001953125,-0.03125,0.013671875,-0.017578125,0.0,0.0,0.0
42669023,33932,0,1.0,-0.029296875,0.015625,-0.013671875,0.0,0.0,0.0
42670274,33933,0,1.005859375,-0.029296875,0.015625,-0.013671875,0.0,0.0,0.0
42671525,33934,0,1.001953125,-0.025390625,0.013671875,-0.01171875,0.0,0.0,0.0
42672776,33935,0,1.0,-0.03125,0.017578125,-0.013671875,0.0,0.0,0.0
42674026,33936,0,1.00390625,-0.025390625,0.017578125,-0.0078125,0.0,0.0,0.0
42675276,33937,0,1.001953125,-0.021484375,0.015625,-0.005859375,0.0,0.0,0.0
42676527,33938,0,1.005859375,-0.025390625,0.013671875,-0.01171875,0.0,0.0,0.0
42677778,33939,0,1.0,-0.021484375,0.009765625,-0.01171875,0.0,0.0,0.0
42679029,33940,0,1.0078125,-0.0234375,0.015625,-0.0078125,0.0,0.0,0.0
42680280,33941,0,1.0,-0.0234375,0.015625,-0.0078125,0.0,0.0,0.0
42681531,33942,0,1.0078125,-0.029296875,0.0234375,-0.005859375,0.0,0.0,0.0
42682783,33943,0,0.998046875,-0.0234375,0.015625,-0.0078125,0.0,0.0,0.0
42684034,33944,0,1.005859375,-0.0234375,0.009765625,-0.013671875,0.0,0.0,0.0
42685286,33945,0,1.0078125,-0.03125,0.0078125,-0.0234375,0.0,0.0,0.0
42686537,33946,0,1.005859375,-0.03125,0.0,-0.03125,0.0,0.0,0.0
42687789,33947,0,0.998046875,-0.03125,0.009765625,-0.021484375,0.0,0.0,0.0
42689039,33948,0,1.0,-0.03515625,0.0078125,-0.02734375,0.0,0.0,0.0
42690289,33949,0,1.0078125,-0.033203125,0.00390625,-0.029296875,0.0,0.0,0.0
42691541,33950,0,1.0078125,-0.033203125,0.015625,-0.017578125,0.0,0.0,0.0
42692792,33951,0,1.00390625,-0.02734375,0.009765625,-0.017578125,0.0,0.0,0.0
42694044,33952,0,1.0,-0.033203125,0.015625,-0.017578125,0.0,0.0,0.0
42695294,33953,0,1.005859375,-0.029296875,0.017578125,-0.01171875,0.0,0.0,0.0
42696544,33954,0,1.001953125,-0.02734375,0.009765625,-0.017578125,0.0,0.0,0.0
42697795,33955,0,0.99609375,-0.02734375,0.009765625,-0.017578125,0.0,0.0,0.0
42699045,33956,0,0.998046875,-0.025390625,0.013671875,-0.01171875,0.0,0.0,0.0
42700295,33957,0,1.0,-0.025390625,0.017578125,-0.0078125,0.0,0.0,0.0
42701546,33958,0,1.009765625,-0.0234375,0.009765625,-0.013671875,0.0,0.0,0.0
42702797,33959,0,1.001953125,-0.025390625,0.015625,-0.009765625,0.0,0.0,0.0
42704048,33960,0,1.0078125,-0.03125,0.009765625,-0.021484375,0.0,0.0,0.0
42705299,33961,0,1.0,-0.029296875,0.013671875,-0.015625,0.0,0.0,0.0
42706550,33962,0,1.0,-0.029296875,0.01171875,-0.017578125,0.0,0.0,0.0
42707800,33963,0,1.005859375,-0.033203125,0.01171875,-0.021484375,0.0,0.0,0.0
42709052,33964,0,1.0,-0.029296875,0.013671875,-0.015625,0.0,0.0,0.0
42710303,33965,0,1.00390625,-0.03515625,0.0078125,-0.02734375,0.0,0.0,0.0
42711554,33966,0,1.001953125,-0.03125,0.013671875,-0.017578125,0.0,0.0,0.0
42712805,33967,0,1.001953125,-0.029296875,0.015625,-0.013671875,0.0,0.0,0.0
42714057,33968,0,1.0078125,-0.03125,0.01171875,-0.01953125,0.0,0.0,0.0
42715308,33969,0,1.0078125,-0.03125,0.01171875,-0.01953125,0.0,0.0,0.0
42716560,33970,0,1.001953125,-0.03125,0.01953125,-0.01171875,0.0,0.0,0.0
42717811,33971,0,1.005859375,-0.029296875,0.017578125,-0.01171875,0.0,0.0,0.0
42719063,33972,0,1.001953125,-0.02734375,0.017578125,-0.009765625,0.0,0.0,0.0
42720314,33973,0,0.998046875,-0.025390625,0.017578125,-0.0078125,0.0,0.0,0.0
42721565,33974,0,1.0078125,-0.029296875,0.005859375,-0.0234375,0.0,0.0,0.0
42722816,33975,0,1.0,-0.029296875,0.015625,-0.013671875,0.0,0.0,0.0
42724066,33976,0,1.005859375,-0.029296875,0.013671875,-0.015625,0.0,0.0,0.0
42725318,33977,0,1.001953125,-0.029296875,0.017578125,-0.01171875,0.0,0.0,0.0
42726569,33978,0,1.005859375,-0.029296875,0.017578125,-0.01171875,0.0,0.0,0.0
42727819,33979,0,1.001953125,-0.029296875,0.015625,-0.013671875,0.0,0.0,0.0
42729070,33980,0,1.001953125,-0.033203125,0.013671875,-0.01953125,0.0,0.0,0.0
42730321,33981,0,1.005859375,-0.029296875,0.009765625,-0.01953125,0.0,0.0,0.0
42731572,33982,0,1.001953125,-0.02734375,0.013671875,-0.013671875,0.0,0.0,0.0
42732823,33983,0,1.001953125,-0.025390625,0.015625,-0.009765625,0.0,0.0,0.0
42734074,33984,0,0.998046875,-0.025390625,0.01171875,-0.013671875,0.0,0.0,0.0
42735325,33985,0,1.005859375,-0.029296875,0.021484375,-0.0078125,0.0,0.0,0.0
42736575,33986,0,1.005859375,-0.02734375,0.013671875,-0.013671875,0.0,0.0,0.0
42737825,33987,0,0.998046875,-0.02734375,0.0078125,-0.01953125,0.0,0.0,0.0
42739076,33988,0,1.0078125,-0.033203125,0.0078125,-0.025390625,0.0,0.0,0.0
42740326,33989,0,1.005859375,-0.029296875,0.021484375,-0.0078125,0.0,0.0,0.0
42741577,33990,0,1.005859375,-0.02734375,0.01953125,-0.0078125,0.0,0.0,0.0
42742828,33991,0,1.005859375,-0.021484375,0.013671875,-0.0078125,0.0,0.0,0.0
42744078,33992,0,1.0,-0.0234375,0.015625,-0.0078125,0.0,0.0,0.0
42745329,33993,0,1.0,-0.025390625,0.0234375,-0.001953125,0.0,0.0,0.0
42746581,33994,0,1.001953125,-0.025390625,0.021484375,-0.00390625,0.0,0.0,0.0
42747833,33995,0,0.998046875,-0.0234375,0.01953125,-0.00390625,0.0,0.0,0.0
42749083,33996,0,1.0078125,-0.029296875,0.013671875,-0.015625,0.0,0.0,0.0
42750333,33997,0,1.001953125,-0.021484375,0.021484375,0.0,0.0,0.0,0.0
42751584,33998,0,1.009765625,-0.025390625,0.01171875,-0.013671875,0.0,0.0,0.0
42752835,33999,0,1.005859375,-0.025390625,0.013671875,-0.01171875,0.0,0.0,0.0
42754085,34000,0,1.005859375,-0.029296875,0.017578125,-0.01171875,0.0,0.0,0.0
42755336,34001,0,1.005859375,-0.02734375,0.017578125,-0.009765625,0.0,0.0,0.0
42756587,34002,0,1.00390625,-0.0234375,0.01953125,-0.00390625,0.0,0.0,0.0
42757838,34003,0,0.998046875,-0.025390625,0.021484375,-0.00390625,0.0,0.0,0.0
42759090,34004,0,1.0,-0.02734375,0.017578125,-0.009765625,0.0,0.0,0.0
42760341,34005,0,0.998046875,-0.025390625,0.009765625,-0.015625,0.0,0.0,0.0
42761592,34006,0,1.0078125,-0.029296875,0.017578125,-0.01171875,0.0,0.0,0.0
42762844,34007,0,1.0078125,-0.033203125,0.015625,-0.017578125,0.0,0.0,0.0
42764095,34008,0,1.0,-0.025390625,0.015625,-0.009765625,0.0,0.0,0.0
42765346,34009,0,0.998046875,-0.02734375,0.005859375,-0.021484375,0.0,0.0,0.0
42766597,34010,0,1.009765625,-0.029296875,0.01171875,-0.017578125,0.0,0.0,0.0
42767849,34011,0,1.0,-0.0234375,0.01953125,-0.00390625,0.0,0.0,0.0
42769099,34012,0,1.005859375,-0.021484375,0.015625,-0.005859375,0.0,0.0,0.0
42770351,34013,0,1.015625,-0.01953125,0.015625,-0.00390625,0.0,0.0,0.0
42771602,34014,0,1.001953125,-0.021484375,0.021484375,0.0,0.0,0.0,0.0
42772854,34015,0,0.998046875,-0.0234375,0.01953125,-0.00390625,0.0,0.0,0.0
42774104,34016,0,1.001953125,-0.021484375,0.01953125,-0.001953125,0.0,0.0,0.0
42775354,34017,0,1.0,-0.025390625,0.009765625,-0.015625,0.0,0.0,0.0
42776605,34018,0,1.0,-0.0234375,0.015625,-0.0078125,0.0,0.0,0.0
42777855,34019,0,1.0,-0.0234375,0.013671875,-0.009765625,0.0,0.0,0.0
42779107,34020,0,1.00390625,-0.025390625,0.021484375,-0.00390625,0.0,0.0,0.0
42780358,34021,0,0.998046875,-0.025390625,0.009765625,-0.015625,0.0,0.0,0.0
42781609,34022,0,1.0078125,-0.03125,0.013671875,-0.017578125,0.0,0.0,0.0
42782859,34023,0,1.005859375,-0.02734375,0.01171875,-0.015625,0.0,0.0,0.0
42784111,34024,0,1.001953125,-0.02734375,0.01953125,-0.0078125,0.0,0.0,0.0
42785362,34025,0,1.005859375,-0.01953125,0.015625,-0.00390625,0.0,0.0,0.0
42786613,34026,0,1.005859375,-0.02734375,0.021484375,-0.005859375,0.0,0.0,0.0
42787865,34027,0,1.00390625,-0.0234375,0.015625,-0.0078125,0.0,0.0,0.0
42789115,34028,0,1.001953125,-0.021484375,0.013671875,-0.0078125,0.0,0.0,0.0
42790365,34029,0,1.00390625,-0.02734375,0.015625,-0.01171875,0.0,0.0,0.0
42791617,34030,0,1.005859375,-0.025390625,0.015625,-0.009765625,0.0,0.0,0.0
42792867,34031,0,0.994140625,-0.025390625,0.017578125,-0.0078125,0.0,0.0,0.0
42794118,34032,0,1.001953125,-0.0234375,0.021484375,-0.001953125,0.0,0.0,0.0
42795369,34033,0,1.001953125,-0.02734375,0.01953125,-0.0078125,0.0,0.0,0.0
42796620,34034,0,1.005859375,-0.0234375,0.015625,-0.0078125,0.0,0.0,0.0
42797871,34035,0,0.998046875,-0.029296875,0.01171875,-0.017578125,0.0,0.0,0.0
42799123,34036,0,1.005859375,-0.033203125,0.013671875,-0.01953125,0.0,0.0,0.0
42800374,34037,0,1.001953125,-0.02734375,0.01171875,-0.015625,0.0,0.0,0.0
42801624,34038,0,1.0078125,-0.02734375,0.009765625,-0.017578125,0.0,0.0,0.0
42802875,34039,0,1.001953125,-0.029296875,0.01953125,-0.009765625,0.0,0.0,0.0
42804125,34040,0,1.001953125,-0.02734375,0.013671875,-0.013671875,0.0,0.0,0.0
42805375,34041,0,1.0078125,-0.029296875,0.013671875,-0.015625,0.0,0.0,0.0
42806626,34042,0,1.00390625,-0.021484375,0.01953125,-0.001953125,0.0,0.0,0.0
42807877,34043,0,1.001953125,-0.0234375,0.01953125,-0.00390625,0.0,0.0,0.0
42809129,34044,0,1.001953125,-0.0234375,0.015625,-0.0078125,0.0,0.0,0.0
42810380,34045,0,0.998046875,-0.033203125,0.015625,-0.017578125,0.0,0.0,0.0
42811630,34046,0,1.0078125,-0.02734375,0.013671875,-0.013671875,0.0,0.0,0.0
42812881,34047,0,1.0078125,-0.0234375,0.017578125,-0.005859375,0.0,0.0,0.0
42814133,34048,0,1.001953125,-0.029296875,0.017578125,-0.01171875,0.0,0.0,0.0
42815384,34049,0,1.0078125,-0.029296875,0.015625,-0.013671875,0.0,0.0,0.0
42816634,34050,0,1.001953125,-0.02734375,0.015625,-0.01171875,0.0,0.0,0.0
42817886,34051,0,1.0078125,-0.02734375,0.015625,-0.01171875,0.0,0.0,0.0
42819136,34052,0,1.0,-0.025390625,0.01171875,-0.013671875,0.0,0.0,0.0
42820386,34053,0,1.0078125,-0.029296875,0.015625,-0.013671875,0.0,0.0,0.0
42821638,34054,0,1.01171875,-0.03515625,0.015625,-0.01953125,0.0,0.0,0.0
42822888,34055,0,1.009765625,-0.02734375,0.0078125,-0.01953125,0.0,0.0,0.0
42824139,34056,0,1.0078125,-0.02734375,0.021484375,-0.005859375,0.0,0.0,0.0
42825391,34057,0,1.0,-0.0234375,0.01953125,-0.00390625,0.0,0.0,0.0
42826641,34058,0,0.994140625,-0.02734375,0.015625,-0.01171875,0.0,0.0,0.0
42827892,34059,0,1.0,-0.025390625,0.01171875,-0.013671875,0.0,0.0,0.0
42829142,34060,0,1.0,-0.0234375,0.015625,-0.0078125,0.0,0.0,0.0
42830393,34061,0,1.0078125,-0.02734375,0.01953125,-0.0078125,0.0,0.0,0.0
42831645,34062,0,1.005859375,-0.025390625,0.01953125,-0.005859375,0.0,0.0,0.0
42832895,34063,0,1.001953125,-0.029296875,0.017578125,-0.01171875,0.0,0.0,0.0
42834147,34064,0,1.001953125,-0.029296875,0.021484375,-0.0078125,0.0,0.0,0.0
42835397,34065,0,0.998046875,-0.02734375,0.01171875,-0.015625,0.0,0.0,0.0
42836649,34066,0,1.001953125,-0.0234375,0.01953125,-0.00390625,0.0,0.0,0.0
42837899,34067,0,1.0,-0.029296875,0.017578125,-0.01171875,0.0,0.0,0.0
42839149,34068,0,1.001953125,-0.02734375,0.009765625,-0.017578125,0.0,0.0,0.0
42840399,34069,0,0.998046875,-0.02734375,0.013671875,-0.013671875,0.0,0.0,0.0
42841650,34070,0,1.001953125,-0.0234375,0.01953125,-0.00390625,0.0,0.0,0.0
42842902,34071,0,1.00390625,-0.0234375,0.017578125,-0.005859375,0.0,0.0,0.0
42844153,34072,0,1.0,-0.0234375,0.005859375,-0.017578125,0.0,0.0,0.0
42845404,34073,0,1.01171875,-0.021484375,0.01953125,-0.001953125,0.0,0.0,0.0
42846654,34074,0,0.998046875,-0.021484375,0.015625,-0.005859375,0.0,0.0,0.0
42847904,34075,0,1.005859375,-0.025390625,0.017578125,-0.0078125,0.0,0.0,0.0
42849155,34076,0,1.0078125,-0.0234375,0.017578125,-0.005859375,0.0,0.0,0.0
42850407,34077,0,1.009765625,-0.025390625,0.01171875,-0.013671875,0.0,0.0,0.0
42851657,34078,0,1.00390625,-0.03125,0.01953125,-0.01171875,0.0,0.0,0.0
42852909,34079,0,1.0,-0.025390625,0.0078125,-0.017578125,0.0,0.0,0.0
42854159,34080,0,1.0,-0.0234375,0.017578125,-0.005859375,0.0,0.0,0.0
42855409,34081,0,1.0,-0.021484375,0.01953125,-0.001953125,0.0,0.0,0.0
42856661,34082,0,0.998046875,-0.01953125,0.01953125,0.0,0.0,0.0,0.0
42857911,34083,0,0.99609375,-0.021484375,0.013671875,-0.0078125,0.0,0.0,0.0
42859161,34084,0,1.001953125,-0.0234375,0.013671875,-0.009765625,0.0,0.0,0.0
42860411,34085,0,1.0078125,-0.021484375,0.01953125,-0.001953125,0.0,0.0,0.0
42861663,34086,0,1.005859375,-0.01953125,0.021484375,0.001953125,0.0,0.0,0.0
42862913,34087,0,1.00390625,-0.017578125,0.015625,-0.001953125,0.0,0.0,0.0
42864164,34088,0,1.00390625,-0.017578125,0.01953125,0.001953125,0.0,0.0,0.0
42865415,34089,0,1.00390625,-0.01953125,0.021484375,0.001953125,0.0,0.0,0.0
42866666,34090,0,1.0,-0.01953125,0.01171875,-0.0078125,0.0,0.0,0.0
42867916,34091,0,1.005859375,-0.01953125,0.013671875,-0.005859375,0.0,0.0,0.0
42869167,34092,0,1.009765625,-0.029296875,0.013671875,-0.015625,0.0,0.0,0.0
42870417,34093,0,0.998046875,-0.0234375,0.01171875,-0.01171875,0.0,0.0,0.0
42871668,34094,0,1.0078125,-0.029296875,0.021484375,-0.0078125,0.0,0.0,0.0
