t_us,frame_id,sensor_id,accX,accY,accZ,acc_sum_YZ,magX,magY,magZ
19628778,15513,0,1.005859375,-0.02734375,0.021484375,-0.005859375,0.0,0.0,0.0
19630029,15514,0,0.998046875,-0.03125,0.025390625,-0.005859375,0.0,0.0,0.0
19631280,15515,0,1.00390625,-0.03515625,0.013671875,-0.021484375,0.0,0.0,0.0
19632531,15516,0,1.0078125,-0.03125,0.02734375,-0.00390625,0.0,0.0,0.0
19633783,15517,0,0.998046875,-0.033203125,0.021484375,-0.01171875,0.0,0.0,0.0
19635034,15518,0,1.00390625,-0.02734375,0.021484375,-0.005859375,0.0,0.0,0.0
19636286,15519,0,1.0078125,-0.025390625,0.021484375,-0.00390625,0.0,0.0,0.0
19637537,15520,0,1.009765625,-0.029296875,0.01953125,-0.009765625,0.0,0.0,0.0
19638789,15521,0,1.001953125,-0.033203125,0.013671875,-0.01953125,0.0,0.0,0.0
19640039,15522,0,0.99609375,-0.02734375,0.0234375,-0.00390625,0.0,0.0,0.0
19641289,15523,0,0.9921875,-0.03125,0.021484375,-0.009765625,0.0,0.0,0.0
19642541,15524,0,1.0078125,-0.03515625,0.02734375,-0.0078125,0.0,0.0,0.0
19643792,15525,0,1.0078125,-0.02734375,0.013671875,-0.013671875,0.0,0.0,0.0
19645044,15526,0,1.005859375,-0.03515625,0.021484375,-0.013671875,0.0,0.0,0.0
19646294,15527,0,1.001953125,-0.029296875,0.0078125,-0.021484375,0.0,0.0,0.0
19647544,15528,0,1.01171875,-0.0234375,0.017578125,-0.005859375,0.0,0.0,0.0
19648795,15529,0,1.0,-0.02734375,0.017578125,-0.009765625,0.0,0.0,0.0
19650045,15530,0,1.0,-0.033203125,0.017578125,-0.015625,0.0,0.0,0.0
19651295,15531,0,1.0078125,-0.03125,0.021484375,-0.009765625,0.0,0.0,0.0
19652546,15532,0,1.001953125,-0.03515625,0.021484375,-0.013671875,0.0,0.0,0.0
19653797,15533,0,1.005859375,-0.033203125,0.025390625,-0.0078125,0.0,0.0,0.0
19655048,15534,0,0.9921875,-0.033203125,0.017578125,-0.015625,0.0,0.0,0.0
19656299,15535,0,0.998046875,-0.02734375,0.025390625,-0.001953125,0.0,0.0,0.0
19657550,15536,0,1.0,-0.029296875,0.017578125,-0.01171875,0.0,0.0,0.0
19658800,15537,0,1.0078125,-0.029296875,0.0234375,-0.005859375,0.0,0.0,0.0
19660052,15538,0,1.001953125,-0.03125,0.021484375,-0.009765625,0.0,0.0,0.0
19661303,15539,0,1.0078125,-0.03125,0.021484375,-0.009765625,0.0,0.0,0.0
19662554,15540,0,0.998046875,-0.033203125,0.01171875,-0.021484375,0.0,0.0,0.0
19663805,15541,0,1.00390625,-0.033203125,0.0234375,-0.009765625,0.0,0.0,0.0
19665057,15542,0,1.00390625,-0.029296875,0.017578125,-0.01171875,0.0,0.0,0.0
19666308,15543,0,1.00390625,-0.033203125,0.013671875,-0.01953125,0.0,0.0,0.0
19667560,15544,0,1.00390625,-0.033203125,0.01171875,-0.021484375,0.0,0.0,0.0
19668811,15545,0,1.0078125,-0.03125,0.025390625,-0.005859375,0.0,0.0,0.0
19670063,15546,0,1.013671875,-0.033203125,0.021484375,-0.01171875,0.0,0.0,0.0
19671314,15547,0,1.0078125,-0.03515625,0.0234375,-0.01171875,0.0,0.0,0.0
19672565,15548,0,1.00390625,-0.037109375,0.015625,-0.021484375,0.0,0.0,0.0
19673816,15549,0,1.0,-0.029296875,0.017578125,-0.01171875,0.0,0.0,0.0
19675066,15550,0,1.00390625,-0.03125,0.021484375,-0.009765625,0.0,0.0,0.0
19676318,15551,0,1.005859375,-0.029296875,0.01953125,-0.009765625,0.0,0.0,0.0
19677569,15552,0,1.0,-0.029296875,0.01953125,-0.009765625,0.0,0.0,0.0
19678819,15553,0,1.0,-0.03125,0.021484375,-0.009765625,0.0,0.0,0.0
19680070,15554,0,0.998046875,-0.03515625,0.021484375,-0.013671875,0.0,0.0,0.0
19681321,15555,0,1.001953125,-0.03125,0.021484375,-0.009765625,0.0,0.0,0.0
19682572,15556,0,1.0,-0.029296875,0.021484375,-0.0078125,0.0,0.0,0.0
19683823,15557,0,1.0,-0.033203125,0.01953125,-0.013671875,0.0,0.0,0.0
19685074,15558,0,1.00390625,-0.03125,0.021484375,-0.009765625,0.0,0.0,0.0
19686325,15559,0,1.0078125,-0.029296875,0.017578125,-0.01171875,0.0,0.0,0.0
19687575,15560,0,1.005859375,-0.029296875,0.01953125,-0.009765625,0.0,0.0,0.0
19688825,15561,0,1.005859375,-0.029296875,0.017578125,-0.01171875,0.0,0.0,0.0
19690076,15562,0,1.00390625,-0.02734375,0.02734375,0.0,0.0,0.0,0.0
19691326,15563,0,1.0,-0.025390625,0.02734375,0.001953125,0.0,0.0,0.0
19692577,15564,0,1.005859375,-0.029296875,0.01953125,-0.009765625,0.0,0.0,0.0
19693828,15565,0,1.0,-0.029296875,0.02734375,-0.001953125,0.0,0.0,0.0
19695078,15566,0,1.0078125,-0.029296875,0.021484375,-0.0078125,0.0,0.0,0.0
19696329,15567,0,1.00390625,-0.029296875,0.01171875,-0.017578125,0.0,0.0,0.0
19697581,15568,0,1.001953125,-0.03125,0.017578125,-0.013671875,0.0,0.0,0.0
19698833,15569,0,1.015625,-0.03125,0.021484375,-0.009765625,0.0,0.0,0.0
19700083,15570,0,0.99609375,-0.029296875,0.01171875,-0.017578125,0.0,0.0,0.0
19701333,15571,0,1.0078125,-0.03125,0.009765625,-0.021484375,0.0,0.0,0.0
19702584,15572,0,0.99609375,-0.03125,0.0234375,-0.0078125,0.0,0.0,0.0
19703835,15573,0,1.0,-0.029296875,0.013671875,-0.015625,0.0,0.0,0.0
19705085,15574,0,1.005859375,-0.033203125,0.0234375,-0.009765625,0.0,0.0,0.0
19706336,15575,0,1.001953125,-0.033203125,0.01953125,-0.013671875,0.0,0.0,0.0
19707587,15576,0,1.00390625,-0.02734375,0.01953125,-0.0078125,0.0,0.0,0.0
19708838,15577,0,1.005859375,-0.029296875,0.01953125,-0.009765625,0.0,0.0,0.0
19710090,15578,0,1.001953125,-0.029296875,0.015625,-0.013671875,0.0,0.0,0.0
19711341,15579,0,1.00390625,-0.029296875,0.017578125,-0.01171875,0.0,0.0,0.0
19712592,15580,0,1.001953125,-0.02734375,0.021484375,-0.005859375,0.0,0.0,0.0
19713844,15581,0,1.001953125,-0.033203125,0.01953125,-0.013671875,0.0,0.0,0.0
19715095,15582,0,1.001953125,-0.02734375,0.01953125,-0.0078125,0.0,0.0,0.0
19716346,15583,0,1.009765625,-0.02734375,0.013671875,-0.013671875,0.0,0.0,0.0
19717597,15584,0,1.00390625,-0.03125,0.025390625,-0.005859375,0.0,0.0,0.0
19718849,15585,0,1.01171875,-0.033203125,0.01953125,-0.013671875,0.0,0.0,0.0
19720099,15586,0,1.00390625,-0.033203125,0.013671875,-0.01953125,0.0,0.0,0.0
19721351,15587,0,0.99609375,-0.033203125,0.017578125,-0.015625,0.0,0.0,0.0
19722602,15588,0,1.0,-0.029296875,0.015625,-0.013671875,0.0,0.0,0.0
19723854,15589,0,0.998046875,-0.029296875,0.017578125,-0.01171875,0.0,0.0,0.0
19725104,15590,0,1.0,-0.02734375,0.017578125,-0.009765625,0.0,0.0,0.0
19726354,15591,0,1.00390625,-0.029296875,0.0234375,-0.005859375,0.0,0.0,0.0
19727605,15592,0,1.005859375,-0.033203125,0.01953125,-0.013671875,0.0,0.0,0.0
19728855,15593,0,1.00390625,-0.03125,0.01953125,-0.01171875,0.0,0.0,0.0
19730107,15594,0,1.0,-0.02734375,0.013671875,-0.013671875,0.0,0.0,0.0
19731358,15595,0,1.001953125,-0.033203125,0.01953125,-0.013671875,0.0,0.0,0.0
19732609,15596,0,1.001953125,-0.03515625,0.021484375,-0.013671875,0.0,0.0,0.0
19733859,15597,0,1.00390625,-0.029296875,0.021484375,-0.0078125,0.0,0.0,0.0
19735111,15598,0,1.005859375,-0.02734375,0.021484375,-0.005859375,0.0,0.0,0.0
19736362,15599,0,1.001953125,-0.03515625,0.021484375,-0.013671875,0.0,0.0,0.0
19737613,15600,0,1.005859375,-0.033203125,0.01953125,-0.013671875,0.0,0.0,0.0
19738865,15601,0,1.0,-0.033203125,0.0234375,-0.009765625,0.0,0.0,0.0
19740115,15602,0,1.00390625,-0.033203125,0.015625,-0.017578125,0.0,0.0,0.0
19741365,15603,0,1.00390625,-0.02734375,0.021484375,-0.005859375,0.0,0.0,0.0
19742617,15604,0,1.00390625,-0.03125,0.01953125,-0.01171875,0.0,0.0,0.0
19743867,15605,0,1.005859375,-0.03125,0.021484375,-0.009765625,0.0,0.0,0.0
19745118,15606,0,1.00390625,-0.03515625,0.013671875,-0.021484375,0.0,0.0,0.0
19746369,15607,0,1.009765625,-0.03125,0.015625,-0.015625,0.0,0.0,0.0
19747620,15608,0,1.009765625,-0.03125,0.01953125,-0.01171875,0.0,0.0,0.0
19748871,15609,0,1.00390625,-0.033203125,0.021484375,-0.01171875,0.0,0.0,0.0
19750123,15610,0,1.00390625,-0.025390625,0.021484375,-0.00390625,0.0,0.0,0.0
19751374,15611,0,1.0,-0.029296875,0.025390625,-0.00390625,0.0,0.0,0.0
19752624,15612,0,0.99609375,-0.03515625,0.029296875,-0.005859375,0.0,0.0,0.0
19753875,15613,0,1.001953125,-0.02734375,0.017578125,-0.009765625,0.0,0.0,0.0
19755125,15614,0,1.001953125,-0.025390625,0.021484375,-0.00390625,0.0,0.0,0.0
19756375,15615,0,1.001953125,-0.03125,0.015625,-0.015625,0.0,0.0,0.0
19757626,15616,0,1.005859375,-0.033203125,0.0234375,-0.009765625,0.0,0.0,0.0
19758877,15617,0,0.99609375,-0.029296875,0.021484375,-0.0078125,0.0,0.0,0.0
19760129,15618,0,1.0,-0.029296875,0.021484375,-0.0078125,0.0,0.0,0.0
19761380,15619,0,1.0078125,-0.029296875,0.015625,-0.013671875,0.0,0.0,0.0
19762630,15620,0,1.001953125,-0.02734375,0.025390625,-0.001953125,0.0,0.0,0.0
19763881,15621,0,1.0,-0.033203125,0.01953125,-0.013671875,0.0,0.0,0.0
19765133,15622,0,1.001953125,-0.033203125,0.021484375,-0.01171875,0.0,0.0,0.0
19766384,15623,0,1.0,-0.029296875,0.01953125,-0.009765625,0.0,0.0,0.0
19767634,15624,0,1.009765625,-0.025390625,0.017578125,-0.0078125,0.0,0.0,0.0
19768886,15625,0,1.0,-0.029296875,0.013671875,-0.015625,0.0,0.0,0.0
19770136,15626,0,1.005859375,-0.029296875,0.01953125,-0.009765625,0.0,0.0,0.0
19771386,15627,0,1.00390625,-0.029296875,0.015625,-0.013671875,0.0,0.0,0.0
19772638,15628,0,1.001953125,-0.029296875,0.01953125,-0.009765625,0.0,0.0,0.0
19773888,15629,0,1.0,-0.03125,0.009765625,-0.021484375,0.0,0.0,0.0
19775139,15630,0,1.0078125,-0.033203125,0.017578125,-0.015625,0.0,0.0,0.0
19776391,15631,0,1.013671875,-0.033203125,0.013671875,-0.01953125,0.0,0.0,0.0
19777641,15632,0,1.001953125,-0.02734375,0.01953125,-0.0078125,0.0,0.0,0.0
19778892,15633,0,1.009765625,-0.029296875,0.021484375,-0.0078125,0.0,0.0,0.0
19780142,15634,0,1.00390625,-0.029296875,0.015625,-0.013671875,0.0,0.0,0.0
19781393,15635,0,0.994140625,-0.029296875,0.0234375,-0.005859375,0.0,0.0,0.0
19782645,15636,0,1.0,-0.03125,0.017578125,-0.013671875,0.0,0.0,0.0
19783895,15637,0,1.00390625,-0.02734375,0.01171875,-0.015625,0.0,0.0,0.0
19785147,15638,0,1.00390625,-0.029296875,0.015625,-0.013671875,0.0,0.0,0.0
19786397,15639,0,1.001953125,-0.025390625,0.021484375,-0.00390625,0.0,0.0,0.0
19787649,15640,0,1.00390625,-0.033203125,0.021484375,-0.01171875,0.0,0.0,0.0
19788899,15641,0,0.99609375,-0.029296875,0.015625,-0.013671875,0.0,0.0,0.0
19790149,15642,0,1.00390625,-0.03125,0.01953125,-0.01171875,0.0,0.0,0.0
19791399,15643,0,1.00390625,-0.03125,0.021484375,-0.009765625,0.0,0.0,0.0
19792650,15644,0,1.001953125,-0.03125,0.01953125,-0.01171875,0.0,0.0,0.0
19793902,15645,0,1.005859375,-0.03125,0.021484375,-0.009765625,0.0,0.0,0.0
19795153,15646,0,1.005859375,-0.029296875,0.017578125,-0.01171875,0.0,0.0,0.0
19796404,15647,0,1.00390625,-0.029296875,0.01953125,-0.009765625,0.0,0.0,0.0
19797654,15648,0,1.0078125,-0.02734375,0.021484375,-0.005859375,0.0,0.0,0.0
19798904,15649,0,1.0078125,-0.025390625,0.015625,-0.009765625,0.0,0.0,0.0
19800155,15650,0,0.998046875,-0.03515625,0.021484375,-0.013671875,0.0,0.0,0.0
19801407,15651,0,1.0,-0.029296875,0.01953125,-0.009765625,0.0,0.0,0.0
19802657,15652,0,1.00390625,-0.03515625,0.015625,-0.01953125,0.0,0.0,0.0
19803909,15653,0,0.998046875,-0.029296875,0.013671875,-0.015625,0.0,0.0,0.0
19805159,15654,0,1.005859375,-0.033203125,0.015625,-0.017578125,0.0,0.0,0.0
19806409,15655,0,1.0,-0.03125,0.01953125,-0.01171875,0.0,0.0,0.0
19807661,15656,0,1.0078125,-0.03125,0.01953125,-0.01171875,0.0,0.0,0.0
19808911,15657,0,1.005859375,-0.03125,0.0234375,-0.0078125,0.0,0.0,0.0
19810161,15658,0,1.005859375,-0.029296875,0.01953125,-0.009765625,0.0,0.0,0.0
19811411,15659,0,1.001953125,-0.03515625,0.017578125,-0.017578125,0.0,0.0,0.0
19812663,15660,0,1.001953125,-0.02734375,0.021484375,-0.005859375,0.0,0.0,0.0
19813913,15661,0,1.009765625,-0.021484375,0.0234375,0.001953125,0.0,0.0,0.0
19815164,15662,0,1.001953125,-0.029296875,0.013671875,-0.015625,0.0,0.0,0.0
19816415,15663,0,1.0078125,-0.03125,0.021484375,-0.009765625,0.0,0.0,0.0
19817666,15664,0,1.0078125,-0.03125,0.017578125,-0.013671875,0.0,0.0,0.0
19818916,15665,0,1.0,-0.033203125,0.021484375,-0.01171875,0.0,0.0,0.0
19820167,15666,0,1.001953125,-0.02734375,0.015625,-0.01171875,0.0,0.0,0.0
19821417,15667,0,1.00390625,-0.033203125,0.013671875,-0.01953125,0.0,0.0,0.0
19822668,15668,0,1.00390625,-0.029296875,0.021484375,-0.0078125,0.0,0.0,0.0
19823920,15669,0,1.00390625,-0.03125,0.017578125,-0.013671875,0.0,0.0,0.0
19825171,15670,0,1.005859375,-0.03125,0.025390625,-0.005859375,0.0,0.0,0.0
19826421,15671,0,1.0,-0.029296875,0.0234375,-0.005859375,0.0,0.0,0.0
19827672,15672,0,1.01171875,-0.029296875,0.013671875,-0.015625,0.0,0.0,0.0
19828924,15673,0,1.0078125,-0.029296875,0.01953125,-0.009765625,0.0,0.0,0.0
19830174,15674,0,0.99609375,-0.029296875,0.021484375,-0.0078125,0.0,0.0,0.0
19831425,15675,0,0.998046875,-0.029296875,0.021484375,-0.0078125,0.0,0.0,0.0
19832677,15676,0,1.0078125,-0.029296875,0.01953125,-0.009765625,0.0,0.0,0.0
19833927,15677,0,0.998046875,-0.03125,0.02734375,-0.00390625,0.0,0.0,0.0
19835177,15678,0,0.998046875,-0.029296875,0.01953125,-0.009765625,0.0,0.0,0.0
19836429,15679,0,1.005859375,-0.02734375,0.021484375,-0.005859375,0.0,0.0,0.0
19837679,15680,0,1.00390625,-0.02734375,0.017578125,-0.009765625,0.0,0.0,0.0
19838931,15681,0,0.998046875,-0.025390625,0.0234375,-0.001953125,0.0,0.0,0.0
19840181,15682,0,1.00390625,-0.029296875,0.01953125,-0.009765625,0.0,0.0,0.0
19841431,15683,0,1.00390625,-0.03125,0.021484375,-0.009765625,0.0,0.0,0.0
19842683,15684,0,1.0,-0.03125,0.01953125,-0.01171875,0.0,0.0,0.0
19843933,15685,0,1.0078125,-0.03125,0.017578125,-0.013671875,0.0,0.0,0.0
19845183,15686,0,1.00390625,-0.029296875,0.0234375,-0.005859375,0.0,0.0,0.0
19846434,15687,0,1.0078125,-0.03125,0.01953125,-0.01171875,0.0,0.0,0.0
19847685,15688,0,1.0078125,-0.037109375,0.02734375,-0.009765625,0.0,0.0,0.0
19848936,15689,0,1.001953125,-0.03125,0.01953125,-0.01171875,0.0,0.0,0.0
19850186,15690,0,1.0,-0.033203125,0.01953125,-0.013671875,0.0,0.0,0.0
19851437,15691,0,1.0,-0.03515625,0.021484375,-0.013671875,0.0,0.0,0.0
19852687,15692,0,1.005859375,-0.029296875,0.015625,-0.013671875,0.0,0.0,0.0
19853937,15693,0,1.001953125,-0.025390625,0.021484375,-0.00390625,0.0,0.0,0.0
19855188,15694,0,1.01171875,-0.025390625,0.017578125,-0.0078125,0.0,0.0,0.0
19856440,15695,0,1.00390625,-0.03125,0.01953125,-0.01171875,0.0,0.0,0.0
19857690,15696,0,1.001953125,-0.03125,0.01953125,-0.01171875,0.0,0.0,0.0
19858942,15697,0,1.00390625,-0.033203125,0.017578125,-0.015625,0.0,0.0,0.0
19860193,15698,0,0.998046875,-0.033203125,0.015625,-0.017578125,0.0,0.0,0.0
19861445,15699,0,1.0,-0.03125,0.015625,-0.015625,0.0,0.0,0.0
19862695,15700,0,0.990234375,-0.029296875,0.017578125,-0.01171875,0.0,0.0,0.0
19863947,15701,0,1.00390625,-0.03125,0.01953125,-0.01171875,0.0,0.0,0.0
19865198,15702,0,1.005859375,-0.025390625,0.01953125,-0.005859375,0.0,0.0,0.0
19866450,15703,0,1.001953125,-0.029296875,0.015625,-0.013671875,0.0,0.0,0.0
19867700,15704,0,1.005859375,-0.03125,0.01953125,-0.01171875,0.0,0.0,0.0
19868952,15705,0,0.99609375,-0.03125,0.01953125,-0.01171875,0.0,0.0,0.0
19870203,15706,0,1.00390625,-0.033203125,0.021484375,-0.01171875,0.0,0.0,0.0
19871454,15707,0,1.001953125,-0.033203125,0.017578125,-0.015625,0.0,0.0,0.0
19872705,15708,0,1.001953125,-0.03515625,0.017578125,-0.017578125,0.0,0.0,0.0
19873957,15709,0,1.005859375,-0.033203125,0.013671875,-0.01953125,0.0,0.0,0.0
19875207,15710,0,1.0,-0.025390625,0.01953125,-0.005859375,0.0,0.0,0.0
19876459,15711,0,1.00390625,-0.03125,0.01171875,-0.01953125,0.0,0.0,0.0
19877709,15712,0,1.00390625,-0.03125,0.01953125,-0.01171875,0.0,0.0,0.0
19878959,15713,0,1.0078125,-0.03515625,0.015625,-0.01953125,0.0,0.0,0.0
19880209,15714,0,1.01171875,-0.033203125,0.021484375,-0.01171875,0.0,0.0,0.0
19881459,15715,0,0.9921875,-0.029296875,0.0234375,-0.005859375,0.0,0.0,0.0
19882711,15716,0,1.009765625,-0.02734375,0.025390625,-0.001953125,0.0,0.0,0.0
19883961,15717,0,1.009765625,-0.029296875,0.01953125,-0.009765625,0.0,0.0,0.05623403936624527
19886464,15719,0,1.009765625,-0.02734375,0.017578125,-0.009765625,0.0,0.0,0.0
19887715,15720,0,1.0078125,-0.029296875,0.021484375,-0.0078125,0.0,0.0,0.0
19888966,15721,0,1.00390625,-0.029296875,0.017578125,-0.01171875,0.0,0.0,0.0
19890216,15722,0,1.005859375,-0.029296875,0.0234375,-0.005859375,0.0,0.0,0.0
19891467,15723,0,1.0078125,-0.03125,0.021484375,-0.009765625,0.0,0.0,0.0
19892718,15724,0,1.00390625,-0.03125,0.021484375,-0.009765625,0.0,0.0,0.0
19893968,15725,0,1.005859375,-0.029296875,0.021484375,-0.0078125,0.0,0.0,0.0
19895219,15726,0,1.0078125,-0.033203125,0.01953125,-0.013671875,0.0,0.0,0.0
19896470,15727,0,1.001953125,-0.03125,0.021484375,-0.009765625,0.0,0.0,0.0
19897721,15728,0,1.0,-0.029296875,0.021484375,-0.0078125,0.0,0.0,0.0
19898971,15729,0,1.00390625,-0.033203125,0.01953125,-0.013671875,0.0,0.0,0.0
19900223,15730,0,1.0,-0.03125,0.021484375,-0.009765625,0.0,0.0,0.0
19901473,15731,0,1.0078125,-0.03125,0.021484375,-0.009765625,0.0,0.0,0.0
19902723,15732,0,1.009765625,-0.02734375,0.01953125,-0.0078125,0.0,0.0,0.0
19903975,15733,0,1.0078125,-0.029296875,0.017578125,-0.01171875,0.0,0.0,0.0
19905226,15734,0,1.009765625,-0.025390625,0.0234375,-0.001953125,0.0,0.0,0.0
19906476,15735,0,1.001953125,-0.033203125,0.01953125,-0.013671875,0.0,0.0,0.0
19907728,15736,0,1.001953125,-0.03125,0.021484375,-0.009765625,0.0,0.0,0.0
19908979,15737,0,1.005859375,-0.025390625,0.021484375,-0.00390625,0.0,0.0,0.0
19910229,15738,0,1.01171875,-0.02734375,0.01953125,-0.0078125,0.0,0.0,0.0
19911481,15739,0,0.998046875,-0.029296875,0.01953125,-0.009765625,0.0,0.0,0.0
19912731,15740,0,1.0078125,-0.029296875,0.021484375,-0.0078125,0.0,0.0,0.0
19913981,15741,0,1.0078125,-0.029296875,0.017578125,-0.01171875,0.0,0.0,0.0
19915232,15742,0,1.005859375,-0.033203125,0.01953125,-0.013671875,0.0,0.0,0.0
19916483,15743,0,1.009765625,-0.025390625,0.029296875,0.00390625,0.0,0.0,0.0
19917734,15744,0,1.00390625,-0.03125,0.021484375,-0.009765625,0.0,0.0,0.0
19918986,15745,0,1.00390625,-0.029296875,0.021484375,-0.0078125,0.0,0.0,0.0
19920236,15746,0,0.99609375,-0.02734375,0.0234375,-0.00390625,0.0,0.0,0.0
19921486,15747,0,1.00390625,-0.029296875,0.009765625,-0.01953125,0.0,0.0,0.0
19922737,15748,0,1.00390625,-0.025390625,0.021484375,-0.00390625,0.0,0.0,0.0
19923987,15749,0,1.001953125,-0.03125,0.01953125,-0.01171875,0.0,0.0,0.0
19925238,15750,0,1.0078125,-0.033203125,0.01953125,-0.013671875,0.0,0.0,0.0
19926489,15751,0,1.001953125,-0.029296875,0.017578125,-0.01171875,0.0,0.0,0.0
19927740,15752,0,1.0078125,-0.033203125,0.021484375,-0.01171875,0.0,0.0,0.0
19928991,15753,0,1.001953125,-0.033203125,0.01953125,-0.013671875,0.0,0.0,0.0
19930241,15754,0,1.0078125,-0.029296875,0.021484375,-0.0078125,0.0,0.0,0.0
19931492,15755,0,0.998046875,-0.02734375,0.0234375,-0.00390625,0.0,0.0,0.0
19932744,15756,0,1.005859375,-0.03125,0.01953125,-0.01171875,0.0,0.0,0.0
19933994,15757,0,1.0,-0.029296875,0.0234375,-0.005859375,0.0,0.0,0.0
19935245,15758,0,1.0,-0.03125,0.017578125,-0.013671875,0.0,0.0,0.0
19936496,15759,0,1.005859375,-0.029296875,0.01171875,-0.017578125,0.0,0.0,0.0
19937747,15760,0,1.0078125,-0.033203125,0.01953125,-0.013671875,0.0,0.0,0.0
19938998,15761,0,1.009765625,-0.037109375,0.03125,-0.005859375,0.0,0.0,0.0
19940249,15762,0,1.015625,-0.025390625,0.021484375,-0.00390625,0.0,0.0,0.0
19941499,15763,0,1.001953125,-0.02734375,0.01953125,-0.0078125,0.0,0.0,0.0
19942751,15764,0,1.005859375,-0.033203125,0.01953125,-0.013671875,0.0,0.0,0.0
19944002,15765,0,1.001953125,-0.033203125,0.01953125,-0.013671875,0.0,0.0,0.0
19945253,15766,0,1.001953125,-0.03125,0.017578125,-0.013671875,0.0,0.0,0.0
19946503,15767,0,1.0078125,-0.03125,0.021484375,-0.009765625,0.0,0.0,0.0
19947755,15768,0,1.001953125,-0.029296875,0.021484375,-0.0078125,0.0,0.0,0.0
19949005,15769,0,1.005859375,-0.033203125,0.01953125,-0.013671875,0.0,0.0,0.0
19950256,15770,0,1.009765625,-0.03125,0.021484375,-0.009765625,0.0,0.0,0.0
19951506,15771,0,1.00390625,-0.02734375,0.015625,-0.01171875,0.0,0.0,0.0
19952757,15772,0,1.0078125,-0.02734375,0.015625,-0.01171875,0.0,0.0,0.0
19954008,15773,0,1.001953125,-0.029296875,0.01953125,-0.009765625,0.0,0.0,0.0
19955258,15774,0,1.001953125,-0.029296875,0.0234375,-0.005859375,0.0,0.0,0.0
19956508,15775,0,0.998046875,-0.029296875,0.015625,-0.013671875,0.0,0.0,0.0
19957759,15776,0,1.00390625,-0.03125,0.0234375,-0.0078125,0.0,0.0,0.0
19959009,15777,0,1.0,-0.033203125,0.021484375,-0.01171875,0.0,0.0,0.0
19960259,15778,0,1.0,-0.03515625,0.01953125,-0.015625,0.0,0.0,0.0
19961510,15779,0,1.001953125,-0.03125,0.01953125,-0.01171875,0.0,0.0,0.0
19962762,15780,0,1.00390625,-0.025390625,0.01953125,-0.005859375,0.0,0.0,0.0
19964012,15781,0,1.005859375,-0.029296875,0.01953125,-0.009765625,0.0,0.0,0.0
19965271,15782,0,0.998046875,-0.029296875,0.025390625,-0.00390625,0.0,0.0,0.0
19966521,15783,0,1.0078125,-0.02734375,0.021484375,-0.005859375,0.0,0.0,0.0
19967773,15784,0,1.013671875,-0.029296875,0.0234375,-0.005859375,0.0,0.0,0.0
19969023,15785,0,1.005859375,-0.025390625,0.021484375,-0.00390625,0.0,0.0,0.0
19970274,15786,0,1.0078125,-0.029296875,0.01953125,-0.009765625,0.0,0.0,0.0
19971525,15787,0,1.00390625,-0.03125,0.0234375,-0.0078125,0.0,0.0,0.0
19972776,15788,0,1.00390625,-0.033203125,0.01953125,-0.013671875,0.0,0.0,0.0
19974026,15789,0,1.00390625,-0.029296875,0.017578125,-0.01171875,0.0,0.0,0.0
19975276,15790,0,1.00390625,-0.029296875,0.01953125,-0.009765625,0.0,0.0,0.0
19976527,15791,0,1.00390625,-0.02734375,0.017578125,-0.009765625,0.0,0.0,0.0
19977778,15792,0,1.0078125,-0.02734375,0.01953125,-0.0078125,0.0,0.0,0.0
19979029,15793,0,1.005859375,-0.029296875,0.017578125,-0.01171875,0.0,0.0,0.0
19980280,15794,0,1.005859375,-0.033203125,0.017578125,-0.015625,0.0,0.0,0.0
19981531,15795,0,1.00390625,-0.03125,0.01953125,-0.01171875,0.0,0.0,0.0
19982783,15796,0,1.0,-0.033203125,0.025390625,-0.0078125,0.0,0.0,0.0
19984034,15797,0,1.0078125,-0.033203125,0.0234375,-0.009765625,0.0,0.0,0.0
19985286,15798,0,1.0078125,-0.033203125,0.017578125,-0.015625,0.0,0.0,0.0
19986537,15799,0,0.99609375,-0.033203125,0.017578125,-0.015625,0.0,0.0,0.0
19987789,15800,0,0.998046875,-0.03125,0.017578125,-0.013671875,0.0,0.0,0.0
19989039,15801,0,1.001953125,-0.029296875,0.017578125,-0.01171875,0.0,0.0,0.0
19990289,15802,0,1.0078125,-0.02734375,0.025390625,-0.001953125,0.0,0.0,0.0
19991541,15803,0,1.001953125,-0.029296875,0.015625,-0.013671875,0.0,0.0,0.0
19992792,15804,0,1.001953125,-0.02734375,0.01953125,-0.0078125,0.0,0.0,0.0
19994044,15805,0,1.013671875,-0.029296875,0.021484375,-0.0078125,0.0,0.0,0.0
19995294,15806,0,1.001953125,-0.033203125,0.021484375,-0.01171875,0.0,0.0,0.0
19996544,15807,0,1.0078125,-0.02734375,0.025390625,-0.001953125,0.0,0.0,0.0
19997795,15808,0,0.998046875,-0.03125,0.01953125,-0.01171875,0.0,0.0,0.0
19999045,15809,0,1.0,-0.029296875,0.015625,-0.013671875,0.0,0.0,0.0
20000295,15810,0,1.005859375,-0.029296875,0.017578125,-0.01171875,0.0,0.0,0.0
20001546,15811,0,1.001953125,-0.03125,0.015625,-0.015625,0.0,0.0,0.0
20002797,15812,0,1.001953125,-0.029296875,0.01953125,-0.009765625,0.0,0.0,0.0
20004048,15813,0,1.00390625,-0.029296875,0.0234375,-0.005859375,0.0,0.0,0.0
20005299,15814,0,1.001953125,-0.02734375,0.015625,-0.01171875,0.0,0.0,0.0
20006550,15815,0,1.001953125,-0.033203125,0.015625,-0.017578125,0.0,0.0,0.0
20007800,15816,0,1.00390625,-0.03125,0.01953125,-0.01171875,0.0,0.0,0.0
20009052,15817,0,1.00390625,-0.029296875,0.0234375,-0.005859375,0.0,0.0,0.0
20010303,15818,0,0.99609375,-0.03515625,0.01953125,-0.015625,0.0,0.0,0.0
20011554,15819,0,1.00390625,-0.025390625,0.017578125,-0.0078125,0.0,0.0,0.0
20012805,15820,0,1.005859375,-0.033203125,0.025390625,-0.0078125,0.0,0.0,0.0
20014057,15821,0,1.0,-0.033203125,0.0234375,-0.009765625,0.0,0.0,0.0
20015308,15822,0,1.013671875,-0.025390625,0.01953125,-0.005859375,0.0,0.0,0.0
20016560,15823,0,0.994140625,-0.029296875,0.0234375,-0.005859375,0.0,0.0,0.0
20017811,15824,0,1.001953125,-0.029296875,0.01171875,-0.017578125,0.0,0.0,0.0
20019063,15825,0,0.998046875,-0.02734375,0.0234375,-0.00390625,0.0,0.0,0.0
20020314,15826,0,1.0,-0.03125,0.015625,-0.015625,0.0,0.0,0.0
20021565,15827,0,1.0078125,-0.033203125,0.021484375,-0.01171875,0.0,0.0,0.0
20022816,15828,0,1.005859375,-0.03125,0.025390625,-0.005859375,0.0,0.0,0.0
20024066,15829,0,1.009765625,-0.033203125,0.021484375,-0.01171875,0.0,0.0,0.0
20025318,15830,0,0.998046875,-0.03125,0.0234375,-0.0078125,0.0,0.0,0.0
20026569,15831,0,0.998046875,-0.03515625,0.02734375,-0.0078125,0.0,0.0,0.0
20027819,15832,0,1.0,-0.029296875,0.01953125,-0.009765625,0.0,0.0,0.0
20029070,15833,0,1.001953125,-0.029296875,0.01953125,-0.009765625,0.0,0.0,0.0
20030321,15834,0,0.998046875,-0.02734375,0.021484375,-0.005859375,0.0,0.0,0.0
20031572,15835,0,1.0078125,-0.02734375,0.021484375,-0.005859375,0.0,0.0,0.0
20032823,15836,0,1.0,-0.03515625,0.01953125,-0.015625,0.0,0.0,0.0
20034074,15837,0,1.00390625,-0.033203125,0.017578125,-0.015625,0.0,0.0,0.0
20035325,15838,0,1.00390625,-0.03125,0.017578125,-0.013671875,0.0,0.0,0.0
20036575,15839,0,1.001953125,-0.029296875,0.0234375,-0.005859375,0.0,0.0,0.0
20037825,15840,0,1.005859375,-0.02734375,0.021484375,-0.005859375,0.0,0.0,0.0
20039076,15841,0,1.00390625,-0.0234375,0.021484375,-0.001953125,0.0,0.0,0.0
20040326,15842,0,1.0078125,-0.033203125,0.013671875,-0.01953125,0.0,0.0,0.0
20041577,15843,0,1.001953125,-0.025390625,0.013671875,-0.01171875,0.0,0.0,0.0
20042828,15844,0,1.001953125,-0.02734375,0.025390625,-0.001953125,0.0,0.0,0.0
20044078,15845,0,1.001953125,-0.03515625,0.017578125,-0.017578125,0.0,0.0,0.0
20045329,15846,0,1.0,-0.033203125,0.013671875,-0.01953125,0.0,0.0,0.0
20046581,15847,0,0.998046875,-0.033203125,0.017578125,-0.015625,0.0,0.0,0.0
20047833,15848,0,1.001953125,-0.02734375,0.021484375,-0.005859375,0.0,0.0,0.0
20049083,15849,0,1.001953125,-0.02734375,0.021484375,-0.005859375,0.0,0.0,0.0
20050333,15850,0,1.00390625,-0.03515625,0.01953125,-0.015625,0.0,0.0,0.0
20051584,15851,0,1.005859375,-0.02734375,0.025390625,-0.001953125,0.0,0.0,0.0
20052835,15852,0,1.00390625,-0.02734375,0.025390625,-0.001953125,0.0,0.0,0.0
20054085,15853,0,1.001953125,-0.033203125,0.021484375,-0.01171875,0.0,0.0,0.0
20055336,15854,0,1.00390625,-0.033203125,0.015625,-0.017578125,0.0,0.0,0.0
20056587,15855,0,1.00390625,-0.029296875,0.021484375,-0.0078125,0.0,0.0,0.0
20057838,15856,0,1.005859375,-0.033203125,0.013671875,-0.01953125,0.0,0.0,0.0
20059090,15857,0,1.001953125,-0.033203125,0.025390625,-0.0078125,0.0,0.0,0.0
20060341,15858,0,1.005859375,-0.033203125,0.0234375,-0.009765625,0.0,0.0,0.0
20061592,15859,0,1.0,-0.029296875,0.01953125,-0.009765625,0.0,0.0,0.0
20062844,15860,0,1.005859375,-0.029296875,0.017578125,-0.01171875,0.0,0.0,0.0
20064095,15861,0,1.00390625,-0.03125,0.017578125,-0.013671875,0.0,0.0,0.0
20065346,15862,0,1.005859375,-0.033203125,0.015625,-0.017578125,0.0,0.0,0.0
20066597,15863,0,1.005859375,-0.02734375,0.017578125,-0.009765625,0.0,0.0,0.0
20067849,15864,0,1.005859375,-0.029296875,0.02734375,-0.001953125,0.0,0.0,0.0
20069099,15865,0,1.00390625,-0.037109375,0.009765625,-0.02734375,0.0,0.0,0.0
20070351,15866,0,1.0078125,-0.03125,0.009765625,-0.021484375,0.0,0.0,0.0
20071602,15867,0,1.0078125,-0.03125,0.015625,-0.015625,0.0,0.0,0.0
20072854,15868,0,0.998046875,-0.029296875,0.017578125,-0.01171875,0.0,0.0,0.0
20074104,15869,0,1.0078125,-0.0234375,0.021484375,-0.001953125,0.0,0.0,0.0
20075354,15870,0,1.00390625,-0.0234375,0.01953125,-0.00390625,0.0,0.0,0.0
20076605,15871,0,0.998046875,-0.03125,0.021484375,-0.009765625,0.0,0.0,0.0
20077855,15872,0,1.0078125,-0.033203125,0.021484375,-0.01171875,0.0,0.0,0.0
20079107,15873,0,1.00390625,-0.033203125,0.01953125,-0.013671875,0.0,0.0,0.0
20080358,15874,0,1.001953125,-0.03125,0.017578125,-0.013671875,0.0,0.0,0.0
20081609,15875,0,1.0078125,-0.029296875,0.021484375,-0.0078125,0.0,0.0,0.0
20082859,15876,0,1.001953125,-0.03125,0.021484375,-0.009765625,0.0,0.0,0.0
20084111,15877,0,1.001953125,-0.03125,0.017578125,-0.013671875,0.0,0.0,0.0
20085362,15878,0,1.001953125,-0.029296875,0.0234375,-0.005859375,0.0,0.0,0.0
20086613,15879,0,1.00390625,-0.03125,0.021484375,-0.009765625,0.0,0.0,0.0
20087865,15880,0,1.005859375,-0.02734375,0.01953125,-0.0078125,0.0,0.0,0.0
20089115,15881,0,1.001953125,-0.02734375,0.017578125,-0.009765625,0.0,0.0,0.0
20090365,15882,0,1.009765625,-0.02734375,0.01953125,-0.0078125,0.0,0.0,0.0
20091617,15883,0,1.0078125,-0.02734375,0.01953125,-0.0078125,0.0,0.0,0.0
20092867,15884,0,1.00390625,-0.029296875,0.01953125,-0.009765625,0.0,0.0,0.0
20094118,15885,0,1.00390625,-0.033203125,0.021484375,-0.01171875,0.0,0.0,0.0
20095369,15886,0,1.0078125,-0.037109375,0.015625,-0.021484375,0.0,0.0,0.0
20096620,15887,0,0.998046875,-0.029296875,0.01171875,-0.017578125,0.0,0.0,0.0
20097871,15888,0,1.009765625,-0.02734375,0.015625,-0.01171875,0.0,0.0,0.0
20099123,15889,0,1.013671875,-0.029296875,0.025390625,-0.00390625,0.0,0.0,0.0
20100374,15890,0,1.00390625,-0.025390625,0.025390625,0.0,0.0,0.0,0.0
20101624,15891,0,1.0,-0.025390625,0.017578125,-0.0078125,0.0,0.0,0.0
20102875,15892,0,0.998046875,-0.03125,0.01953125,-0.01171875,0.0,0.0,0.0
20104125,15893,0,1.00390625,-0.037109375,0.021484375,-0.015625,0.0,0.0,0.0
20105375,15894,0,1.0,-0.033203125,0.017578125,-0.015625,0.0,0.0,0.0
20106626,15895,0,1.00390625,-0.029296875,0.013671875,-0.015625,0.0,0.0,0.0
20107877,15896,0,1.00390625,-0.037109375,0.021484375,-0.015625,0.0,0.0,0.0
20109129,15897,0,0.998046875,-0.037109375,0.021484375,-0.015625,0.0,0.0,0.0
20110380,15898,0,1.005859375,-0.033203125,0.021484375,-0.01171875,0.0,0.0,0.0
20111630,15899,0,0.994140625,-0.033203125,0.01953125,-0.013671875,0.0,0.0,0.0
20112881,15900,0,1.001953125,-0.03125,0.01171875,-0.01953125,0.0,0.0,0.0
20114133,15901,0,1.001953125,-0.0390625,0.01171875,-0.02734375,0.0,0.0,0.0
20115384,15902,0,0.998046875,-0.04296875,0.01953125,-0.0234375,0.0,0.0,0.0
20116634,15903,0,0.998046875,-0.037109375,0.013671875,-0.0234375,0.0,0.0,0.0
20117886,15904,0,1.009765625,-0.02734375,0.025390625,-0.001953125,0.0,0.0,0.0
20119136,15905,0,0.9921875,-0.064453125,-0.001953125,-0.06640625,0.0,0.0,0.0
20120386,15906,0,0.990234375,-0.06640625,-0.00390625,-0.0703125,0.0,0.0,0.0
20121638,15907,0,0.994140625,-0.13671875,-0.048828125,-0.185546875,0.0,0.0,0.0
20122888,15908,0,0.62890625,-1.345703125,-0.6171875,-1.962890625,0.0,0.0,0.0
20124139,15909,0,0.85546875,0.23828125,0.091796875,0.330078125,0.0,0.0,0.0
20125391,15910,0,1.3046875,0.740234375,0.4140625,1.154296875,0.0,0.0,0.0
20126641,15911,0,1.00390625,0.05078125,0.173828125,0.224609375,0.0,0.0,0.0
20127892,15912,0,1.15234375,-0.12890625,-0.08984375,-0.21875,0.0,0.0,0.0
20129142,15913,0,0.80078125,-0.0390625,0.06640625,0.02734375,0.0,0.0,0.0
20130393,15914,0,1.140625,-0.07421875,-0.056640625,-0.130859375,0.0,0.0,0.0
20131645,15915,0,0.873046875,0.009765625,0.05859375,0.068359375,0.0,0.0,0.0
20132895,15916,0,1.07421875,-0.072265625,-0.046875,-0.119140625,0.0,0.0,0.0
20134147,15917,0,0.95703125,-0.072265625,0.025390625,-0.046875,0.0,0.0,0.0
20135397,15918,0,1.0390625,-0.080078125,-0.021484375,-0.1015625,0.0,0.0,0.0
20136649,15919,0,1.0078125,0.00390625,0.05859375,0.0625,0.0,0.0,0.0
20137899,15920,0,1.0078125,0.037109375,0.0546875,0.091796875,0.0,0.0,0.0
20139149,15921,0,1.03125,-0.076171875,-0.005859375,-0.08203125,0.0,0.0,0.0
20140399,15922,0,0.95703125,-0.068359375,-0.009765625,-0.078125,0.0,0.0,0.0
20141650,15923,0,1.009765625,-0.03515625,0.03515625,0.0,0.0,0.0,0.0
20142902,15924,0,1.0078125,-0.01171875,0.01953125,0.0078125,0.0,0.0,0.0
20144153,15925,0,1.0078125,-0.060546875,0.00390625,-0.056640625,0.0,0.0,0.0
20145404,15926,0,0.990234375,-0.09375,-0.0078125,-0.1015625,0.0,0.0,0.0
20146654,15927,0,1.015625,-0.083984375,-0.021484375,-0.10546875,0.0,0.0,0.0
20147904,15928,0,0.9765625,-0.07421875,-0.01171875,-0.0859375,0.0,0.0,0.0
20149155,15929,0,1.001953125,-0.005859375,0.04296875,0.037109375,0.0,0.0,0.0
20150407,15930,0,0.990234375,-0.109375,-0.009765625,-0.119140625,0.0,0.0,0.0
20151657,15931,0,0.994140625,-0.013671875,0.015625,0.001953125,0.0,0.0,0.0
20152909,15932,0,0.99609375,0.033203125,-0.0234375,0.009765625,0.0,0.0,0.0
20154159,15933,0,0.990234375,-0.111328125,-0.052734375,-0.1640625,0.0,0.0,0.0
20155409,15934,0,1.001953125,-0.033203125,0.01953125,-0.013671875,0.0,0.0,0.0
20156661,15935,0,1.041015625,0.05859375,0.0390625,0.09765625,0.0,0.0,0.0
20157911,15936,0,1.0234375,0.083984375,0.119140625,0.203125,0.0,0.0,0.0
20159161,15937,0,1.01171875,-0.0546875,0.02734375,-0.02734375,0.0,0.0,0.0
20160411,15938,0,0.94921875,-0.033203125,-0.005859375,-0.0390625,0.0,0.0,0.0
20161663,15939,0,0.9921875,-0.1953125,-0.064453125,-0.259765625,0.0,0.0,0.0
20162913,15940,0,0.966796875,-0.37109375,-0.140625,-0.51171875,0.0,0.0,0.0
20164164,15941,0,0.923828125,-0.619140625,-0.26953125,-0.888671875,0.0,0.0,0.0
20165415,15942,0,0.962890625,-1.59765625,-0.42578125,-2.0234375,0.0,0.0,0.0
20166666,15943,0,0.58203125,-4.0,-1.837890625,-5.837890625,0.0,0.0,0.0
20167916,15944,0,1.990234375,-4.0,-2.505859375,-6.505859375,0.0,0.0,0.0
20169167,15945,0,0.2265625,-4.0,-1.482421875,-5.482421875,0.0,0.0,0.0
20170417,15946,0,-1.884765625,-4.0,-4.0,-8.0,0.0,0.0,0.0
20171668,15947,0,2.4921875,-4.0,-4.0,-8.0,0.0,0.0,0.0
20172920,15948,0,-0.755859375,-2.462890625,-4.0,-6.462890625,0.0,0.0,0.0
20174171,15949,0,1.767578125,3.998046875,-2.462890625,1.53515625,0.0,0.0,0.0
20175421,15950,0,0.287109375,3.998046875,0.494140625,4.4921875,0.0,0.0,0.0
20176672,15951,0,3.06640625,3.998046875,3.015625,7.013671875,0.0,0.0,0.0
20177924,15952,0,0.560546875,3.998046875,3.998046875,7.99609375,0.0,0.0,0.0
20179174,15953,0,0.791015625,3.998046875,3.998046875,7.99609375,0.0,0.0,0.0
20180425,15954,0,1.982421875,3.998046875,3.998046875,7.99609375,0.0,0.0,0.0
20181677,15955,0,0.646484375,3.998046875,2.90625,6.904296875,0.0,0.0,0.0
20182927,15956,0,0.75390625,2.6953125,0.57421875,3.26953125,0.0,0.0,0.0
20184177,15957,0,1.501953125,-2.15234375,-1.59765625,-3.75,0.0,0.0,0.0
20185429,15958,0,1.486328125,-4.0,-2.62109375,-6.62109375,0.0,0.0,0.0
20186679,15959,0,0.162109375,-4.0,-2.72265625,-6.72265625,0.0,0.0,0.0
20187931,15960,0,1.013671875,-4.0,-3.23828125,-7.23828125,0.0,0.0,0.0
20189181,15961,0,0.849609375,-4.0,-2.890625,-6.890625,0.0,0.0,0.0
20190431,15962,0,-0.0546875,-4.0,-1.90625,-5.90625,0.0,0.0,0.0
20191683,15963,0,1.060546875,-2.556640625,-1.361328125,-3.91796875,0.0,0.0,0.0
20192933,15964,0,1.609375,0.248046875,-0.5859375,-0.337890625,0.0,0.0,0.0
20194183,15965,0,1.046875,2.66796875,0.69140625,3.359375,0.0,0.0,0.0
20195434,15966,0,1.208984375,3.998046875,1.3515625,5.349609375,0.0,0.0,0.0
20196685,15967,0,1.70703125,3.998046875,1.609375,5.607421875,0.0,0.0,0.0
20197936,15968,0,0.826171875,3.998046875,1.908203125,5.90625,0.0,0.0,0.0
20199186,15969,0,0.537109375,3.662109375,1.748046875,5.41015625,0.0,0.0,0.0
20200437,15970,0,1.396484375,2.162109375,0.759765625,2.921875,0.0,0.0,0.0
20201687,15971,0,1.078125,0.48046875,0.150390625,0.630859375,0.0,0.0,0.0
20202937,15972,0,0.748046875,-0.998046875,-0.279296875,-1.27734375,0.0,0.0,0.0
20204188,15973,0,1.416015625,-2.138671875,-0.974609375,-3.11328125,0.0,0.0,0.0
20205440,15974,0,1.09765625,-2.75390625,-1.09765625,-3.8515625,0.0,0.0,0.0
20206690,15975,0,0.5234375,-2.818359375,-0.8203125,-3.638671875,0.0,0.0,0.0
20207942,15976,0,0.79296875,-2.388671875,-0.685546875,-3.07421875,0.0,0.0,0.0
20209193,15977,0,1.10546875,-0.55859375,-0.169921875,-0.728515625,0.0,0.0,0.0
20210445,15978,0,1.029296875,0.341796875,0.080078125,0.421875,0.0,0.0,0.0
20211695,15979,0,1.455078125,1.11328125,0.16015625,1.2734375,0.0,0.0,0.0
20212947,15980,0,1.01953125,1.54296875,0.578125,2.12109375,0.0,0.0,0.0
20214198,15981,0,0.896484375,1.662109375,0.720703125,2.3828125,0.0,0.0,0.0
20215450,15982,0,1.16796875,1.447265625,0.546875,1.994140625,0.0,0.0,0.0
20216700,15983,0,0.8828125,1.01953125,0.513671875,1.533203125,0.0,0.0,0.0
20217952,15984,0,0.7421875,0.44140625,0.3515625,0.79296875,0.0,0.0,0.0
20219203,15985,0,1.14453125,-0.1484375,-0.072265625,-0.220703125,0.0,0.0,0.0
20220454,15986,0,1.1875,-0.609375,-0.29296875,-0.90234375,0.0,0.0,0.0
20221705,15987,0,0.91796875,-0.904296875,-0.275390625,-1.1796875,0.0,0.0,0.0
20222957,15988,0,1.1015625,-0.990234375,-0.3828125,-1.373046875,0.0,0.0,0.0
20224207,15989,0,1.07421875,-0.884765625,-0.337890625,-1.22265625,0.0,0.0,0.0
20225459,15990,0,0.70703125,-0.61328125,-0.08984375,-0.703125,0.0,0.0,0.0
20226709,15991,0,0.869140625,-0.267578125,-0.04296875,-0.310546875,0.0,0.0,0.0
20227959,15992,0,1.12109375,0.0703125,-0.029296875,0.041015625,0.0,0.0,0.0
20229209,15993,0,1.017578125,0.373046875,0.13671875,0.509765625,0.0,0.0,0.0
20230459,15994,0,1.06640625,0.552734375,0.220703125,0.7734375,0.0,0.0,0.0
20231711,15995,0,1.24609375,0.60546875,0.169921875,0.775390625,0.0,0.0,0.0
20232961,15996,0,1.01953125,0.55859375,0.251953125,0.810546875,0.0,0.0,0.0
20234213,15997,0,0.806640625,0.416015625,0.294921875,0.7109375,0.0,0.0,0.0
20235464,15998,0,0.998046875,0.208984375,0.123046875,0.33203125,0.0,0.0,0.0
20236715,15999,0,0.9765625,0.0,0.0390625,0.0390625,0.0,0.0,0.0
20237966,16000,0,0.93359375,-0.17578125,-0.00390625,-0.1796875,0.0,0.0,0.0
20239216,16001,0,1.140625,-0.306640625,-0.138671875,-0.4453125,0.0,0.0,0.0
20240467,16002,0,1.146484375,-0.35546875,-0.17578125,-0.53125,0.0,0.0,0.0
20241718,16003,0,0.947265625,-0.322265625,-0.072265625,-0.39453125,0.0,0.0,0.0
20242968,16004,0,0.935546875,-0.23828125,-0.029296875,-0.267578125,0.0,0.0,0.0
20244219,16005,0,0.986328125,-0.115234375,-0.01953125,-0.134765625,0.0,0.0,0.0
20245470,16006,0,0.8828125,0.01171875,0.09375,0.10546875,0.0,0.0,0.0
20246721,16007,0,0.9765625,0.123046875,0.099609375,0.22265625,0.0,0.0,0.0
20247971,16008,0,1.142578125,0.19140625,0.037109375,0.228515625,0.0,0.0,0.0
20249223,16009,0,1.0703125,0.203125,0.07421875,0.27734375,0.0,0.0,0.0
20250473,16010,0,1.01171875,0.169921875,0.111328125,0.28125,0.0,0.0,0.0
20251723,16011,0,1.04296875,0.109375,0.0625,0.171875,0.0,0.0,0.0
20252975,16012,0,0.9609375,0.029296875,0.0625,0.091796875,0.0,0.0,0.0
20254226,16013,0,0.88671875,-0.03515625,0.076171875,0.041015625,0.0,0.0,0.0
20255476,16014,0,0.990234375,-0.09765625,-0.001953125,-0.099609375,0.0,0.0,0.0
20256728,16015,0,1.068359375,-0.140625,-0.0703125,-0.2109375,0.0,0.0,0.0
20257979,16016,0,1.005859375,-0.1484375,-0.037109375,-0.185546875,0.0,0.0,0.0
20259229,16017,0,1.0703125,-0.138671875,-0.056640625,-0.1953125,0.0,0.0,0.0
20260481,16018,0,1.0703125,-0.107421875,0.0234375,-0.083984375,0.0,0.0,0.0
20261731,16019,0,0.94921875,-0.04296875,0.05078125,0.0078125,0.0,0.0,0.0
20262981,16020,0,0.931640625,-0.001953125,0.03125,0.029296875,0.0,0.0,0.0
20264232,16021,0,0.984375,0.01953125,0.029296875,0.048828125,0.0,0.0,0.0
20265483,16022,0,1.005859375,0.033203125,0.02734375,0.060546875,0.0,0.0,0.0
20266734,16023,0,1.08984375,0.03125,-0.01171875,0.01953125,0.0,0.0,0.0
20267986,16024,0,1.056640625,0.01171875,0.005859375,0.017578125,0.0,0.0,0.0
20269236,16025,0,0.96875,-0.013671875,0.037109375,0.0234375,0.0,0.0,0.0
20270486,16026,0,0.9765625,-0.04296875,0.017578125,-0.025390625,0.0,0.0,0.0
20271737,16027,0,0.970703125,-0.064453125,0.00390625,-0.060546875,0.0,0.0,0.0
20272987,16028,0,0.951171875,-0.080078125,0.017578125,-0.0625,0.0,0.0,0.0
20274238,16029,0,1.013671875,-0.083984375,-0.0078125,-0.091796875,0.0,0.0,0.0
20275489,16030,0,1.072265625,-0.076171875,-0.046875,-0.123046875,0.0,0.0,0.0
20276740,16031,0,1.037109375,-0.05859375,-0.021484375,-0.080078125,0.0,0.0,0.0
20277991,16032,0,1.01171875,-0.0390625,0.001953125,-0.037109375,0.0,0.0,0.0
20279241,16033,0,1.009765625,-0.029296875,0.005859375,-0.0234375,0.0,0.0,0.0
20280492,16034,0,0.958984375,-0.009765625,0.04296875,0.033203125,0.0,0.0,0.0
20281744,16035,0,0.958984375,-0.0078125,0.037109375,0.029296875,0.0,0.0,0.0
20282994,16036,0,1.02734375,-0.00390625,0.0078125,0.00390625,0.0,0.0,0.0
20284245,16037,0,1.0390625,0.001953125,0.00390625,0.005859375,0.0,0.0,0.0
20285496,16038,0,1.02734375,0.00390625,0.013671875,0.017578125,0.0,0.0,0.0
20286747,16039,0,1.041015625,-0.009765625,0.005859375,-0.00390625,0.0,0.0,0.0
20287998,16040,0,1.001953125,-0.01171875,0.015625,0.00390625,0.0,0.0,0.0
20289249,16041,0,0.958984375,-0.01953125,0.033203125,0.013671875,0.0,0.0,0.0
20290499,16042,0,0.9765625,-0.021484375,0.03125,0.009765625,0.0,0.0,0.0
20291751,16043,0,1.013671875,-0.021484375,0.013671875,-0.0078125,0.0,0.0,0.0
20293002,16044,0,1.00390625,-0.0234375,0.01171875,-0.01171875,0.0,0.0,0.0
20294253,16045,0,1.021484375,-0.01953125,0.00390625,-0.015625,0.0,0.0,0.0
20295503,16046,0,1.04296875,-0.017578125,0.001953125,-0.015625,0.0,0.0,0.0
20296755,16047,0,0.998046875,-0.005859375,0.0234375,0.017578125,0.0,0.0,0.0
20298005,16048,0,0.974609375,0.001953125,0.044921875,0.046875,0.0,0.0,0.0
20299256,16049,0,0.98828125,0.001953125,0.037109375,0.0390625,0.0,0.0,0.0
20300506,16050,0,0.9921875,0.0078125,0.033203125,0.041015625,0.0,0.0,0.0
20301757,16051,0,0.994140625,0.00390625,0.03515625,0.0390625,0.0,0.0,0.0
20303008,16052,0,1.037109375,-0.00390625,0.015625,0.01171875,0.0,0.0,0.0
20304258,16053,0,1.03515625,-0.0078125,0.013671875,0.005859375,0.0,0.0,0.0
20305508,16054,0,0.998046875,-0.005859375,0.01953125,0.013671875,0.0,0.0,0.0
20306759,16055,0,0.994140625,-0.015625,0.03125,0.015625,0.0,0.0,0.0
20308009,16056,0,0.994140625,-0.017578125,0.029296875,0.01171875,0.0,0.0,0.0
20309259,16057,0,0.978515625,-0.01953125,0.03515625,0.015625,0.0,0.0,0.0
20310510,16058,0,0.986328125,-0.021484375,0.033203125,0.01171875,0.0,0.0,0.0
20311762,16059,0,1.025390625,-0.015625,0.01171875,-0.00390625,0.0,0.0,0.0
20313012,16060,0,1.017578125,-0.0234375,0.017578125,-0.005859375,0.0,0.0,0.0
20314271,16061,0,1.01171875,-0.02734375,0.015625,-0.01171875,0.0,0.0,0.0
20315521,16062,0,1.013671875,-0.025390625,0.02734375,0.001953125,0.0,0.0,0.0
20316773,16063,0,0.990234375,-0.021484375,0.033203125,0.01171875,0.0,0.0,0.0
20318023,16064,0,1.001953125,-0.025390625,0.017578125,-0.0078125,0.0,0.0,0.0
20319274,16065,0,1.013671875,-0.029296875,0.01171875,-0.017578125,0.0,0.0,0.0
20320525,16066,0,1.017578125,-0.033203125,0.015625,-0.017578125,0.0,0.0,0.0
20321776,16067,0,1.02734375,-0.03515625,0.009765625,-0.025390625,0.0,0.0,0.0
20323026,16068,0,1.015625,-0.041015625,0.00390625,-0.037109375,0.0,0.0,0.0
20324276,16069,0,0.986328125,-0.044921875,0.01953125,-0.025390625,0.0,0.0,0.0
20325527,16070,0,0.984375,-0.041015625,0.0234375,-0.017578125,0.0,0.0,0.0
20326778,16071,0,0.9921875,-0.041015625,0.0078125,-0.033203125,0.0,0.0,0.0
20328029,16072,0,1.001953125,-0.041015625,0.009765625,-0.03125,0.0,0.0,0.0
20329280,16073,0,1.01171875,-0.04296875,0.001953125,-0.041015625,0.0,0.0,0.0
20330531,16074,0,1.029296875,-0.044921875,-0.00390625,-0.048828125,0.0,0.0,0.0
20331783,16075,0,1.015625,-0.041015625,0.001953125,-0.0390625,0.0,0.0,0.0
20333034,16076,0,0.9921875,-0.041015625,0.013671875,-0.02734375,0.0,0.0,0.0
20334286,16077,0,0.990234375,-0.044921875,0.00390625,-0.041015625,0.0,0.0,0.0
20335537,16078,0,0.986328125,-0.04296875,0.01171875,-0.03125,0.0,0.0,0.0
20336789,16079,0,0.998046875,-0.0390625,0.009765625,-0.029296875,0.0,0.0,0.0
20338039,16080,0,1.025390625,-0.041015625,0.0,-0.041015625,0.0,0.0,0.0
20339289,16081,0,1.025390625,-0.037109375,-0.00390625,-0.041015625,0.0,0.0,0.0
20340541,16082,0,1.01171875,-0.03515625,0.0,-0.03515625,0.0,0.0,0.0
20341792,16083,0,1.005859375,-0.041015625,-0.00390625,-0.044921875,0.0,0.0,0.0
20343044,16084,0,1.0,-0.037109375,0.005859375,-0.03125,0.0,0.0,0.0
20344294,16085,0,0.978515625,-0.037109375,0.013671875,-0.0234375,0.0,0.0,0.0
20345544,16086,0,0.990234375,-0.03515625,0.005859375,-0.029296875,0.0,0.0,0.0
20346795,16087,0,1.01171875,-0.03515625,0.001953125,-0.033203125,0.0,0.0,0.0
20348045,16088,0,1.013671875,-0.02734375,0.0,-0.02734375,0.0,0.0,0.0
20349295,16089,0,1.009765625,-0.025390625,0.005859375,-0.01953125,0.0,0.0,0.0
20350546,16090,0,1.013671875,-0.0234375,0.005859375,-0.017578125,0.0,0.0,0.0
20351797,16091,0,0.998046875,-0.017578125,0.01171875,-0.005859375,0.0,0.0,0.0
20353048,16092,0,0.986328125,-0.015625,0.017578125,0.001953125,0.0,0.0,0.0
20354299,16093,0,0.9921875,-0.015625,0.01953125,0.00390625,0.0,0.0,0.0
20355550,16094,0,1.00390625,-0.017578125,0.017578125,0.0,0.0,0.0,0.0
20356800,16095,0,1.0078125,-0.017578125,0.01171875,-0.005859375,0.0,0.0,0.0
20358052,16096,0,1.0234375,-0.013671875,0.009765625,-0.00390625,0.0,0.0,0.0
20359303,16097,0,1.01953125,-0.013671875,0.005859375,-0.0078125,0.0,0.0,0.0
20360554,16098,0,1.005859375,-0.01171875,0.017578125,0.005859375,0.0,0.0,0.0
20361805,16099,0,0.994140625,-0.015625,0.015625,0.0,0.0,0.0,0.0
20363057,16100,0,1.0,-0.01171875,0.0234375,0.01171875,0.0,0.0,0.0
20364308,16101,0,1.0078125,-0.009765625,0.021484375,0.01171875,0.0,0.0,0.0
20365560,16102,0,1.0078125,-0.005859375,0.013671875,0.0078125,0.0,0.0,0.0
20366811,16103,0,1.015625,-0.00390625,0.01953125,0.015625,0.0,0.0,0.0
20368063,16104,0,1.017578125,-0.00390625,0.02734375,0.0234375,0.0,0.0,0.0
20369314,16105,0,1.0078125,-0.005859375,0.025390625,0.01953125,0.0,0.0,0.0
20370565,16106,0,0.994140625,-0.005859375,0.03125,0.025390625,0.0,0.0,0.0
20371816,16107,0,1.0,-0.0078125,0.029296875,0.021484375,0.0,0.0,0.0
20373066,16108,0,0.99609375,-0.0078125,0.01953125,0.01171875,0.0,0.0,0.0
20374318,16109,0,1.01171875,-0.01171875,0.01953125,0.0078125,0.0,0.0,0.0
20375569,16110,0,1.01171875,-0.017578125,0.017578125,0.0,0.0,0.0,0.0
20376819,16111,0,1.015625,-0.01171875,0.0234375,0.01171875,0.0,0.0,0.0
20378070,16112,0,1.0,-0.017578125,0.025390625,0.0078125,0.0,0.0,0.0
20379321,16113,0,0.998046875,-0.013671875,0.021484375,0.0078125,0.0,0.0,0.0
20380572,16114,0,0.994140625,-0.01953125,0.029296875,0.009765625,0.0,0.0,0.0
20381823,16115,0,1.0,-0.01953125,0.0234375,0.00390625,0.0,0.0,0.0
20383074,16116,0,1.00390625,-0.021484375,0.01953125,-0.001953125,0.0,0.0,0.0
20384325,16117,0,1.0078125,-0.01953125,0.021484375,0.001953125,0.0,0.0,0.0
20385575,16118,0,1.01953125,-0.025390625,0.021484375,-0.00390625,0.0,0.0,0.0
20386825,16119,0,1.005859375,-0.03125,0.02734375,-0.00390625,0.0,0.0,0.0
20388076,16120,0,0.994140625,-0.029296875,0.021484375,-0.0078125,0.0,0.0,0.0
20389326,16121,0,1.001953125,-0.029296875,0.025390625,-0.00390625,0.0,0.0,0.0
20390577,16122,0,1.001953125,-0.03515625,0.029296875,-0.005859375,0.0,0.0,0.0
20391828,16123,0,0.99609375,-0.03515625,0.0234375,-0.01171875,0.0,0.0,0.0
20393078,16124,0,1.0,-0.033203125,0.017578125,-0.015625,0.0,0.0,0.0
20394329,16125,0,1.017578125,-0.03515625,0.015625,-0.01953125,0.0,0.0,0.0
20395581,16126,0,1.005859375,-0.037109375,0.021484375,-0.015625,0.0,0.0,0.0
20396833,16127,0,1.005859375,-0.037109375,0.0234375,-0.013671875,0.0,0.0,0.0
20398083,16128,0,0.998046875,-0.0390625,0.01953125,-0.01953125,0.0,0.0,0.0
20399333,16129,0,0.99609375,-0.037109375,0.013671875,-0.0234375,0.0,0.0,0.0
20400584,16130,0,1.005859375,-0.0390625,0.013671875,-0.025390625,0.0,0.0,0.0
20401835,16131,0,1.0078125,-0.0390625,0.017578125,-0.021484375,0.0,0.0,0.0
20403085,16132,0,1.0078125,-0.037109375,0.009765625,-0.02734375,0.0,0.0,0.0
20404336,16133,0,1.00390625,-0.041015625,0.01171875,-0.029296875,0.0,0.0,0.0
20405587,16134,0,1.0078125,-0.037109375,0.017578125,-0.01953125,0.0,0.0,0.0
20406838,16135,0,1.0,-0.0390625,0.009765625,-0.029296875,0.0,0.0,0.0
20408090,16136,0,0.99609375,-0.0390625,0.015625,-0.0234375,0.0,0.0,0.0
20409341,16137,0,1.0,-0.03515625,0.013671875,-0.021484375,0.0,0.0,0.0
20410592,16138,0,1.0,-0.03515625,0.01171875,-0.0234375,0.0,0.0,0.0
20411844,16139,0,1.009765625,-0.033203125,0.021484375,-0.01171875,0.0,0.0,0.0
20413095,16140,0,1.0078125,-0.033203125,0.015625,-0.017578125,0.0,0.0,0.0
20414346,16141,0,1.005859375,-0.03125,0.01953125,-0.01171875,0.0,0.0,0.0
20415597,16142,0,1.001953125,-0.02734375,0.015625,-0.01171875,0.0,0.0,0.0
20416849,16143,0,1.00390625,-0.025390625,0.009765625,-0.015625,0.0,0.0,0.0
20418099,16144,0,1.001953125,-0.025390625,0.017578125,-0.0078125,0.0,0.0,0.0
20419351,16145,0,1.00390625,-0.03125,0.015625,-0.015625,0.0,0.0,0.0
20420602,16146,0,1.00390625,-0.025390625,0.017578125,-0.0078125,0.0,0.0,0.0
20421854,16147,0,1.009765625,-0.021484375,0.0234375,0.001953125,0.0,0.0,0.0
20423104,16148,0,1.0078125,-0.01953125,0.013671875,-0.005859375,0.0,0.0,0.0
20424354,16149,0,1.0,-0.01953125,0.015625,-0.00390625,0.0,0.0,0.0
20425605,16150,0,1.005859375,-0.01953125,0.013671875,-0.005859375,0.0,0.0,0.0
20426855,16151,0,1.001953125,-0.017578125,0.013671875,-0.00390625,0.0,0.0,0.0
20428107,16152,0,1.01171875,-0.009765625,0.015625,0.005859375,0.0,0.0,0.0
20429358,16153,0,1.001953125,-0.013671875,0.01953125,0.005859375,0.0,0.0,0.0
20430609,16154,0,1.00390625,-0.01171875,0.015625,0.00390625,0.0,0.0,0.0
20431859,16155,0,1.001953125,-0.013671875,0.013671875,0.0,0.0,0.0,0.0
20433111,16156,0,1.0078125,-0.009765625,0.015625,0.005859375,0.0,0.0,0.0
20434362,16157,0,0.99609375,-0.01171875,0.015625,0.00390625,0.0,0.0,0.0
20435613,16158,0,1.0,-0.01171875,0.017578125,0.005859375,0.0,0.0,0.0
20436865,16159,0,1.001953125,-0.013671875,0.015625,0.001953125,0.0,0.0,0.0
20438115,16160,0,1.005859375,-0.005859375,0.021484375,0.015625,0.0,0.0,0.0
20439365,16161,0,1.01171875,-0.015625,0.017578125,0.001953125,0.0,0.0,0.0
20440617,16162,0,1.0078125,-0.01171875,0.021484375,0.009765625,0.0,0.0,0.0
20441867,16163,0,0.99609375,-0.013671875,0.0234375,0.009765625,0.0,0.0,0.0
20443118,16164,0,1.0078125,-0.013671875,0.017578125,0.00390625,0.0,0.0,0.0
20444369,16165,0,1.005859375,-0.013671875,0.01953125,0.005859375,0.0,0.0,0.0
20445620,16166,0,1.005859375,-0.017578125,0.01953125,0.001953125,0.0,0.0,0.0
20446871,16167,0,1.00390625,-0.013671875,0.021484375,0.0078125,0.0,0.0,0.0
20448123,16168,0,1.0078125,-0.01953125,0.015625,-0.00390625,0.0,0.0,0.0
20449374,16169,0,1.009765625,-0.021484375,0.01171875,-0.009765625,0.0,0.0,0.0
20450624,16170,0,1.009765625,-0.021484375,0.009765625,-0.01171875,0.0,0.0,0.0
20451875,16171,0,0.998046875,-0.021484375,0.013671875,-0.0078125,0.0,0.0,0.0
20453125,16172,0,1.00390625,-0.025390625,0.017578125,-0.0078125,0.0,0.0,0.0
20454375,16173,0,1.00390625,-0.025390625,0.013671875,-0.01171875,0.0,0.0,0.0
20455626,16174,0,1.001953125,-0.0234375,0.013671875,-0.009765625,0.0,0.0,0.0
20456877,16175,0,1.0078125,-0.029296875,0.0078125,-0.021484375,0.0,0.0,0.0
20458129,16176,0,1.005859375,-0.02734375,0.0078125,-0.01953125,0.0,0.0,0.0
20459380,16177,0,0.998046875,-0.033203125,0.009765625,-0.0234375,0.0,0.0,0.0
20460630,16178,0,1.0,-0.03125,0.01171875,-0.01953125,0.0,0.0,0.0
20461881,16179,0,1.005859375,-0.03125,0.01171875,-0.01953125,0.0,0.0,0.0
20463133,16180,0,1.0,-0.0390625,0.01953125,-0.01953125,0.0,0.0,0.0
20464384,16181,0,1.0078125,-0.03515625,0.013671875,-0.021484375,0.0,0.0,0.0
20465634,16182,0,1.001953125,-0.03125,0.013671875,-0.017578125,0.0,0.0,0.0
20466886,16183,0,1.005859375,-0.037109375,0.015625,-0.021484375,0.0,0.0,0.0
20468136,16184,0,1.005859375,-0.037109375,0.013671875,-0.0234375,0.0,0.0,0.0
20469386,16185,0,0.998046875,-0.037109375,0.017578125,-0.01953125,0.0,0.0,0.0
20470638,16186,0,0.998046875,-0.0390625,0.0078125,-0.03125,0.0,0.0,0.0
20471888,16187,0,1.005859375,-0.046875,0.015625,-0.03125,0.0,0.0,0.0
20473139,16188,0,1.001953125,-0.037109375,0.017578125,-0.01953125,0.0,0.0,0.0
20474391,16189,0,1.0078125,-0.037109375,0.009765625,-0.02734375,0.0,0.0,0.0
20475641,16190,0,1.001953125,-0.0390625,0.015625,-0.0234375,0.0,0.0,0.0
20476892,16191,0,1.00390625,-0.03515625,0.017578125,-0.017578125,0.0,0.0,0.0
20478142,16192,0,1.00390625,-0.033203125,0.013671875,-0.01953125,0.0,0.0,0.0
20479393,16193,0,1.0,-0.037109375,0.017578125,-0.01953125,0.0,0.0,0.0
20480645,16194,0,1.001953125,-0.03515625,0.013671875,-0.021484375,0.0,0.0,0.0
20481895,16195,0,1.00390625,-0.037109375,0.015625,-0.021484375,0.0,0.0,0.0
20483147,16196,0,1.001953125,-0.03515625,0.015625,-0.01953125,0.0,0.0,0.0
20484397,16197,0,1.0078125,-0.02734375,0.013671875,-0.013671875,0.0,0.0,0.0
20485649,16198,0,1.0078125,-0.03125,0.01171875,-0.01953125,0.0,0.0,0.0
20486899,16199,0,1.001953125,-0.025390625,0.017578125,-0.0078125,0.0,0.0,0.0
20488149,16200,0,1.001953125,-0.02734375,0.017578125,-0.009765625,0.0,0.0,0.0
20489399,16201,0,1.0,-0.025390625,0.017578125,-0.0078125,0.0,0.0,0.0
20490650,16202,0,1.001953125,-0.025390625,0.01953125,-0.005859375,0.0,0.0,0.0
20491902,16203,0,1.00390625,-0.021484375,0.0234375,0.001953125,0.0,0.0,0.0
20493153,16204,0,1.00390625,-0.01953125,0.021484375,0.001953125,0.0,0.0,0.0
20494404,16205,0,1.005859375,-0.021484375,0.005859375,-0.015625,0.0,0.0,0.0
20495654,16206,0,1.00390625,-0.021484375,0.015625,-0.005859375,0.0,0.0,0.0
20496904,16207,0,1.0078125,-0.0234375,0.01953125,-0.00390625,0.0,0.0,0.0
20498155,16208,0,1.005859375,-0.017578125,0.021484375,0.00390625,0.0,0.0,0.0
20499407,16209,0,0.99609375,-0.021484375,0.0234375,0.001953125,0.0,0.0,0.0
20500657,16210,0,0.998046875,-0.017578125,0.015625,-0.001953125,0.0,0.0,0.0
20501909,16211,0,0.99609375,-0.01953125,0.017578125,-0.001953125,0.0,0.0,0.0
20503159,16212,0,1.001953125,-0.017578125,0.0234375,0.005859375,0.0,0.0,0.0
20504409,16213,0,1.0078125,-0.01953125,0.015625,-0.00390625,0.0,0.0,0.0
20505661,16214,0,1.0078125,-0.01953125,0.015625,-0.00390625,0.0,0.0,0.0
20506911,16215,0,1.005859375,-0.021484375,0.013671875,-0.0078125,0.0,0.0,0.0
20508161,16216,0,1.009765625,-0.015625,0.01953125,0.00390625,0.0,0.0,0.0
20509411,16217,0,1.001953125,-0.013671875,0.015625,0.001953125,0.0,0.0,0.0
20510663,16218,0,1.001953125,-0.013671875,0.015625,0.001953125,0.0,0.0,0.0
20511913,16219,0,1.0078125,-0.013671875,0.015625,0.001953125,0.0,0.0,0.0
20513164,16220,0,1.00390625,-0.015625,0.017578125,0.001953125,0.0,0.0,0.0
20514415,16221,0,1.009765625,-0.015625,0.017578125,0.001953125,0.0,0.0,0.0
20515666,16222,0,1.005859375,-0.01953125,0.021484375,0.001953125,0.0,0.0,0.0
20516916,16223,0,1.0,-0.021484375,0.021484375,0.0,0.0,0.0,0.0
20518167,16224,0,0.998046875,-0.01953125,0.017578125,-0.001953125,0.0,0.0,0.0
20519417,16225,0,1.001953125,-0.025390625,0.013671875,-0.01171875,0.0,0.0,0.0
20520668,16226,0,1.005859375,-0.017578125,0.01171875,-0.005859375,0.0,0.0,0.0
20521920,16227,0,1.0078125,-0.021484375,0.013671875,-0.0078125,0.0,0.0,0.0
20523171,16228,0,1.009765625,-0.0234375,0.015625,-0.0078125,0.0,0.0,0.0
20524421,16229,0,1.009765625,-0.0234375,0.009765625,-0.013671875,0.0,0.0,0.0
20525672,16230,0,1.001953125,-0.02734375,0.015625,-0.01171875,0.0,0.0,0.0
20526924,16231,0,1.013671875,-0.029296875,0.017578125,-0.01171875,0.0,0.0,0.0
20528174,16232,0,1.00390625,-0.02734375,0.013671875,-0.013671875,0.0,0.0,0.0
20529425,16233,0,0.998046875,-0.025390625,0.009765625,-0.015625,0.0,0.0,0.0
20530677,16234,0,1.001953125,-0.02734375,0.013671875,-0.013671875,0.0,0.0,0.0
20531927,16235,0,1.00390625,-0.03515625,0.01171875,-0.0234375,0.0,0.0,0.0
20533177,16236,0,1.009765625,-0.02734375,0.01171875,-0.015625,0.0,0.0,0.0
20534429,16237,0,1.005859375,-0.03125,0.021484375,-0.009765625,0.0,0.0,0.0
20535679,16238,0,1.0,-0.033203125,0.0078125,-0.025390625,0.0,0.0,0.0
20536931,16239,0,1.005859375,-0.03125,0.015625,-0.015625,0.0,0.0,0.0
20538181,16240,0,0.998046875,-0.03515625,0.015625,-0.01953125,0.0,0.0,0.0
20539431,16241,0,0.998046875,-0.03125,0.009765625,-0.021484375,0.0,0.0,0.0
20540683,16242,0,1.005859375,-0.033203125,0.015625,-0.017578125,0.0,0.0,0.0
20541933,16243,0,1.005859375,-0.03125,0.013671875,-0.017578125,0.0,0.0,0.0
20543183,16244,0,1.0,-0.033203125,0.013671875,-0.01953125,0.0,0.0,0.0
20544434,16245,0,1.001953125,-0.03515625,0.013671875,-0.021484375,0.0,0.0,0.0
20545685,16246,0,1.001953125,-0.037109375,0.0078125,-0.029296875,0.0,0.0,0.0
20546936,16247,0,1.00390625,-0.03125,0.015625,-0.015625,0.0,0.0,0.0
20548186,16248,0,1.0078125,-0.03125,0.00390625,-0.02734375,0.0,0.0,0.0
20549437,16249,0,1.0078125,-0.029296875,0.013671875,-0.015625,0.0,0.0,0.0
20550687,16250,0,0.99609375,-0.033203125,0.021484375,-0.01171875,0.0,0.0,0.0
20551937,16251,0,1.0078125,-0.03125,0.025390625,-0.005859375,0.0,0.0,0.0
20553188,16252,0,1.001953125,-0.029296875,0.021484375,-0.0078125,0.0,0.0,0.0
20554440,16253,0,1.005859375,-0.02734375,0.01171875,-0.015625,0.0,0.0,0.0
20555690,16254,0,1.0,-0.029296875,0.017578125,-0.01171875,0.0,0.0,0.0
20556942,16255,0,1.0,-0.0234375,0.017578125,-0.005859375,0.0,0.0,0.0
20558193,16256,0,1.001953125,-0.02734375,0.013671875,-0.013671875,0.0,0.0,0.0
20559445,16257,0,1.005859375,-0.02734375,0.0078125,-0.01953125,0.0,0.0,0.0
20560695,16258,0,1.0078125,-0.02734375,0.021484375,-0.005859375,0.0,0.0,0.0
20561947,16259,0,1.001953125,-0.021484375,0.01171875,-0.009765625,0.0,0.0,0.0
20563198,16260,0,1.001953125,-0.029296875,0.021484375,-0.0078125,0.0,0.0,0.0
20564450,16261,0,1.001953125,-0.0234375,0.017578125,-0.005859375,0.0,0.0,0.0
20565700,16262,0,1.001953125,-0.0234375,0.01953125,-0.00390625,0.0,0.0,0.0
20566952,16263,0,1.00390625,-0.017578125,0.021484375,0.00390625,0.0,0.0,0.0
20568203,16264,0,1.005859375,-0.0234375,0.0234375,0.0,0.0,0.0,0.0
20569454,16265,0,1.0,-0.021484375,0.015625,-0.005859375,0.0,0.0,0.0
20570705,16266,0,1.00390625,-0.021484375,0.01953125,-0.001953125,0.0,0.0,0.0
20571957,16267,0,1.0,-0.017578125,0.01953125,0.001953125,0.0,0.0,0.0
20573207,16268,0,1.009765625,-0.021484375,0.017578125,-0.00390625,0.0,0.0,0.0
20574459,16269,0,1.005859375,-0.01953125,0.0234375,0.00390625,0.0,0.0,0.0
20575709,16270,0,1.00390625,-0.021484375,0.015625,-0.005859375,0.0,0.0,0.0
20576959,16271,0,1.009765625,-0.0234375,0.017578125,-0.005859375,0.0,0.0,0.0
20578209,16272,0,1.00390625,-0.013671875,0.015625,0.001953125,0.0,0.0,0.0
20579459,16273,0,1.001953125,-0.0234375,0.017578125,-0.005859375,0.0,0.0,0.0
20580711,16274,0,1.005859375,-0.013671875,0.01953125,0.005859375,0.0,0.0,0.0
20581961,16275,0,1.009765625,-0.01953125,0.01953125,0.0,0.0,0.0,0.0
20583213,16276,0,1.00390625,-0.01953125,0.015625,-0.00390625,0.0,0.0,0.0
20584464,16277,0,1.0,-0.0234375,0.0078125,-0.015625,0.0,0.0,0.0
20585715,16278,0,1.0078125,-0.0234375,0.015625,-0.0078125,0.0,0.0,0.0
20586966,16279,0,1.001953125,-0.021484375,0.017578125,-0.00390625,0.0,0.0,0.0
20588216,16280,0,1.005859375,-0.0234375,0.009765625,-0.013671875,0.0,0.0,0.0
20589467,16281,0,1.001953125,-0.0234375,0.013671875,-0.009765625,0.0,0.0,0.0
20590718,16282,0,1.0078125,-0.025390625,0.01171875,-0.013671875,0.0,0.0,0.0
20591968,16283,0,1.001953125,-0.021484375,0.01171875,-0.009765625,0.0,0.0,0.0
20593219,16284,0,1.0,-0.02734375,0.017578125,-0.009765625,0.0,0.0,0.0
20594470,16285,0,1.001953125,-0.02734375,0.0078125,-0.01953125,0.0,0.0,0.0
20595721,16286,0,1.00390625,-0.03125,0.01171875,-0.01953125,0.0,0.0,0.0
20596971,16287,0,0.998046875,-0.03125,0.0078125,-0.0234375,0.0,0.0,0.0
20598223,16288,0,1.005859375,-0.033203125,0.01171875,-0.021484375,0.0,0.0,0.0
20599473,16289,0,1.001953125,-0.03125,0.009765625,-0.021484375,0.0,0.0,0.0
20600723,16290,0,1.001953125,-0.025390625,0.015625,-0.009765625,0.0,0.0,0.0
20601975,16291,0,1.005859375,-0.03125,0.01171875,-0.01953125,0.0,0.0,0.0
20603226,16292,0,1.013671875,-0.029296875,0.013671875,-0.015625,0.0,0.0,0.0
20604476,16293,0,1.001953125,-0.033203125,0.005859375,-0.02734375,0.0,0.0,0.0
20605728,16294,0,0.998046875,-0.025390625,0.01171875,-0.013671875,0.0,0.0,0.0
20606979,16295,0,0.9921875,-0.03125,0.021484375,-0.009765625,0.0,0.0,0.0
20608229,16296,0,1.001953125,-0.0234375,0.01953125,-0.00390625,0.0,0.0,0.0
20609481,16297,0,0.99609375,-0.025390625,0.0078125,-0.017578125,0.0,0.0,0.0
20610731,16298,0,1.00390625,-0.0234375,0.015625,-0.0078125,0.0,0.0,0.0
20611981,16299,0,1.0,-0.0234375,0.017578125,-0.005859375,0.0,0.0,0.0
20613232,16300,0,1.0,-0.025390625,0.013671875,-0.01171875,0.0,0.0,0.0
20614483,16301,0,0.998046875,-0.025390625,0.017578125,-0.0078125,0.0,0.0,0.0
20615734,16302,0,1.009765625,-0.029296875,0.015625,-0.013671875,0.0,0.0,0.0
20616986,16303,0,1.001953125,-0.03125,0.009765625,-0.021484375,0.0,0.0,0.0
20618236,16304,0,1.001953125,-0.025390625,0.009765625,-0.015625,0.0,0.0,0.0
20619486,16305,0,1.00390625,-0.02734375,0.015625,-0.01171875,0.0,0.0,0.0
20620737,16306,0,0.998046875,-0.033203125,0.021484375,-0.01171875,0.0,0.0,0.0
20621987,16307,0,0.998046875,-0.03125,0.013671875,-0.017578125,0.0,0.0,0.0
20623238,16308,0,0.998046875,-0.03125,0.015625,-0.015625,0.0,0.0,0.0
20624489,16309,0,1.005859375,-0.021484375,0.013671875,-0.0078125,0.0,0.0,0.0
20625740,16310,0,1.001953125,-0.025390625,0.01171875,-0.013671875,0.0,0.0,0.0
20626991,16311,0,1.0078125,-0.021484375,0.013671875,-0.0078125,0.0,0.0,0.0
20628241,16312,0,1.001953125,-0.01953125,0.015625,-0.00390625,0.0,0.0,0.0
20629492,16313,0,1.005859375,-0.0234375,0.01953125,-0.00390625,0.0,0.0,0.0
20630744,16314,0,1.0078125,-0.01953125,0.01953125,0.0,0.0,0.0,0.0
20631994,16315,0,1.00390625,-0.0234375,0.021484375,-0.001953125,0.0,0.0,0.0
20633245,16316,0,1.013671875,-0.01953125,0.015625,-0.00390625,0.0,0.0,0.0
20634496,16317,0,1.00390625,-0.02734375,0.015625,-0.01171875,0.0,0.0,0.0
20635747,16318,0,0.994140625,-0.025390625,0.0078125,-0.017578125,0.0,0.0,0.0
20636998,16319,0,1.0,-0.01953125,0.013671875,-0.005859375,0.0,0.0,0.0
20638249,16320,0,1.001953125,-0.021484375,0.01953125,-0.001953125,0.0,0.0,0.0
20639499,16321,0,1.0,-0.015625,0.01953125,0.00390625,0.0,0.0,0.0
20640751,16322,0,1.00390625,-0.021484375,0.01953125,-0.001953125,0.0,0.0,0.0
20642002,16323,0,1.0078125,-0.021484375,0.021484375,0.0,0.0,0.0,0.0
20643253,16324,0,1.001953125,-0.017578125,0.01953125,0.001953125,0.0,0.0,0.0
20644503,16325,0,1.005859375,-0.021484375,0.021484375,0.0,0.0,0.0,0.0
20645755,16326,0,1.0078125,-0.021484375,0.021484375,0.0,0.0,0.0,0.0
20647005,16327,0,1.001953125,-0.0234375,0.01953125,-0.00390625,0.0,0.0,0.0
20648256,16328,0,1.001953125,-0.0234375,0.017578125,-0.005859375,0.0,0.0,0.0
20649506,16329,0,1.005859375,-0.0234375,0.015625,-0.0078125,0.0,0.0,0.0
20650757,16330,0,1.005859375,-0.0234375,0.01953125,-0.00390625,0.0,0.0,0.0
20652008,16331,0,1.001953125,-0.025390625,0.017578125,-0.0078125,0.0,0.0,0.0
20653258,16332,0,1.0078125,-0.0234375,0.017578125,-0.005859375,0.0,0.0,0.0
20654508,16333,0,1.00390625,-0.0234375,0.013671875,-0.009765625,0.0,0.0,0.0
20655759,16334,0,1.005859375,-0.029296875,0.01953125,-0.009765625,0.0,0.0,0.0
20657009,16335,0,1.00390625,-0.029296875,0.015625,-0.013671875,0.0,0.0,0.0
20658259,16336,0,1.001953125,-0.029296875,0.01953125,-0.009765625,0.0,0.0,0.0
20659510,16337,0,0.998046875,-0.029296875,0.01953125,-0.009765625,0.0,0.0,0.0
20660762,16338,0,1.01171875,-0.029296875,0.017578125,-0.01171875,0.0,0.0,0.0
20662012,16339,0,1.015625,-0.02734375,0.013671875,-0.013671875,0.0,0.0,0.0
20663271,16340,0,1.005859375,-0.03125,0.013671875,-0.017578125,0.0,0.0,0.0
20664521,16341,0,0.99609375,-0.029296875,0.017578125,-0.01171875,0.0,0.0,0.0
20665773,16342,0,1.0,-0.03125,0.013671875,-0.017578125,0.0,0.0,0.0
20667023,16343,0,0.998046875,-0.029296875,0.017578125,-0.01171875,0.0,0.0,0.0
20668274,16344,0,1.00390625,-0.03515625,0.013671875,-0.021484375,0.0,0.0,0.0
20669525,16345,0,1.0078125,-0.03515625,0.015625,-0.01953125,0.0,0.0,0.0
20670776,16346,0,1.00390625,-0.03515625,0.013671875,-0.021484375,0.0,0.0,0.0
20672026,16347,0,1.0078125,-0.029296875,0.013671875,-0.015625,0.0,0.0,0.0
20673276,16348,0,1.005859375,-0.03515625,0.009765625,-0.025390625,0.0,0.0,0.0
20674527,16349,0,1.005859375,-0.033203125,0.01171875,-0.021484375,0.0,0.0,0.0
20675778,16350,0,1.00390625,-0.033203125,0.013671875,-0.01953125,0.0,0.0,0.0
20677029,16351,0,1.00390625,-0.03125,0.01171875,-0.01953125,0.0,0.0,0.0
20678280,16352,0,1.0,-0.029296875,0.01171875,-0.017578125,0.0,0.0,0.0
20679531,16353,0,0.998046875,-0.025390625,0.013671875,-0.01171875,0.0,0.0,0.0
20680783,16354,0,1.00390625,-0.03125,0.009765625,-0.021484375,0.0,0.0,0.0
20682034,16355,0,1.001953125,-0.029296875,0.017578125,-0.01171875,0.0,0.0,0.0
20683286,16356,0,0.99609375,-0.02734375,0.013671875,-0.013671875,0.0,0.0,0.0
20684537,16357,0,1.001953125,-0.02734375,0.017578125,-0.009765625,0.0,0.0,0.0
20685789,16358,0,1.00390625,-0.03125,0.013671875,-0.017578125,0.0,0.0,0.0
20687039,16359,0,1.0,-0.02734375,0.009765625,-0.017578125,0.0,0.0,0.0
20688289,16360,0,1.005859375,-0.03125,0.021484375,-0.009765625,0.0,0.0,0.0
20689541,16361,0,1.001953125,-0.025390625,0.021484375,-0.00390625,0.0,0.0,0.0
20690792,16362,0,1.01171875,-0.021484375,0.017578125,-0.00390625,0.0,0.0,0.0
20692044,16363,0,1.0078125,-0.0234375,0.017578125,-0.005859375,0.0,0.0,0.0
20693294,16364,0,1.0,-0.0234375,0.013671875,-0.009765625,0.0,0.0,0.0
20694544,16365,0,1.0078125,-0.021484375,0.015625,-0.005859375,0.0,0.0,0.0
20695795,16366,0,0.99609375,-0.021484375,0.01171875,-0.009765625,0.0,0.0,0.0
20697045,16367,0,1.00390625,-0.021484375,0.015625,-0.005859375,0.0,0.0,0.0
20698295,16368,0,1.005859375,-0.021484375,0.01953125,-0.001953125,0.0,0.0,0.0
20699546,16369,0,1.005859375,-0.021484375,0.01953125,-0.001953125,0.0,0.0,0.0
20700797,16370,0,0.998046875,-0.015625,0.01953125,0.00390625,0.0,0.0,0.0
20702048,16371,0,1.001953125,-0.017578125,0.01171875,-0.005859375,0.0,0.0,0.0
20703299,16372,0,1.00390625,-0.01953125,0.01953125,0.0,0.0,0.0,0.0
20704550,16373,0,1.001953125,-0.021484375,0.021484375,0.0,0.0,0.0,0.0
20705800,16374,0,1.005859375,-0.017578125,0.021484375,0.00390625,0.0,0.0,0.0
20707052,16375,0,1.0078125,-0.017578125,0.02734375,0.009765625,0.0,0.0,0.0
20708303,16376,0,1.0078125,-0.01953125,0.01953125,0.0,0.0,0.0,0.0
20709554,16377,0,1.001953125,-0.021484375,0.017578125,-0.00390625,0.0,0.0,0.0
20710805,16378,0,0.99609375,-0.025390625,0.01171875,-0.013671875,0.0,0.0,0.0
20712057,16379,0,1.0078125,-0.021484375,0.015625,-0.005859375,0.0,0.0,0.0
20713308,16380,0,1.015625,-0.021484375,0.021484375,0.0,0.0,0.0,0.0
20714560,16381,0,1.005859375,-0.021484375,-0.01171875,-0.033203125,0.0,0.0,0.0
20715811,16382,0,1.00390625,-0.029296875,0.013671875,-0.015625,0.0,0.0,0.0
20717063,16383,0,1.005859375,-0.025390625,0.015625,-0.009765625,0.0,0.0,0.0
20718314,16384,0,1.005859375,-0.0234375,0.01953125,-0.00390625,0.0,0.0,0.0
20719565,16385,0,1.0,-0.029296875,0.017578125,-0.01171875,0.0,0.0,0.0
20720816,16386,0,1.0078125,-0.03125,0.017578125,-0.013671875,0.0,0.0,0.0
20722066,16387,0,1.0,-0.03125,0.009765625,-0.021484375,0.0,0.0,0.0
20723318,16388,0,1.005859375,-0.02734375,0.017578125,-0.009765625,0.0,0.0,0.0
20724569,16389,0,1.001953125,-0.02734375,0.0078125,-0.01953125,0.0,0.0,0.0
20725819,16390,0,1.0078125,-0.01953125,0.021484375,0.001953125,0.0,0.0,0.0
20727070,16391,0,1.001953125,-0.021484375,0.017578125,-0.00390625,0.0,0.0,0.0
20728321,16392,0,1.009765625,-0.0234375,0.009765625,-0.013671875,0.0,0.0,0.0
20729572,16393,0,1.0,-0.025390625,0.017578125,-0.0078125,0.0,0.0,0.0
20730823,16394,0,1.0,-0.02734375,0.013671875,-0.013671875,0.0,0.0,0.0
20732074,16395,0,1.00390625,-0.025390625,0.015625,-0.009765625,0.0,0.0,0.0
20733325,16396,0,1.005859375,-0.033203125,0.015625,-0.017578125,0.0,0.0,0.0
20734575,16397,0,1.009765625,-0.033203125,0.013671875,-0.01953125,0.0,0.0,0.0
20735825,16398,0,1.005859375,-0.03515625,0.017578125,-0.017578125,0.0,0.0,0.0
20737076,16399,0,1.005859375,-0.033203125,0.013671875,-0.01953125,0.0,0.0,0.0
20738326,16400,0,0.9921875,-0.03515625,0.01171875,-0.0234375,0.0,0.0,0.0
20739577,16401,0,1.001953125,-0.03515625,0.017578125,-0.017578125,0.0,0.0,0.0
20740828,16402,0,1.009765625,-0.03515625,0.01953125,-0.015625,0.0,0.0,0.0
20742078,16403,0,1.0,-0.02734375,0.017578125,-0.009765625,0.0,0.0,0.0
20743329,16404,0,0.998046875,-0.03125,0.013671875,-0.017578125,0.0,0.0,0.0
20744581,16405,0,1.0,-0.029296875,0.01953125,-0.009765625,0.0,0.0,0.0
20745833,16406,0,1.01171875,-0.025390625,0.0078125,-0.017578125,0.0,0.0,0.0
20747083,16407,0,1.001953125,-0.02734375,0.009765625,-0.017578125,0.0,0.0,0.0
20748333,16408,0,1.001953125,-0.02734375,0.015625,-0.01171875,0.0,0.0,0.0
20749584,16409,0,1.0,-0.025390625,0.01953125,-0.005859375,0.0,0.0,0.0
20750835,16410,0,1.001953125,-0.029296875,0.009765625,-0.01953125,0.0,0.0,0.0
20752085,16411,0,1.001953125,-0.02734375,0.015625,-0.01171875,0.0,0.0,0.0
20753336,16412,0,1.009765625,-0.029296875,0.01953125,-0.009765625,0.0,0.0,0.0
20754587,16413,0,1.001953125,-0.029296875,0.009765625,-0.01953125,0.0,0.0,0.0
20755838,16414,0,1.005859375,-0.02734375,0.013671875,-0.013671875,0.0,0.0,0.0
20757090,16415,0,1.00390625,-0.0234375,0.01953125,-0.00390625,0.0,0.0,0.0
20758341,16416,0,1.0,-0.025390625,0.013671875,-0.01171875,0.0,0.0,0.0
20759592,16417,0,0.99609375,-0.01953125,0.01953125,0.0,0.0,0.0,0.0
20760844,16418,0,1.005859375,-0.0234375,0.021484375,-0.001953125,0.0,0.0,0.0
20762095,16419,0,1.005859375,-0.021484375,0.017578125,-0.00390625,0.0,0.0,0.0
20763346,16420,0,1.005859375,-0.01953125,0.017578125,-0.001953125,0.0,0.0,0.0
20764597,16421,0,0.9921875,-0.0234375,0.0234375,0.0,0.0,0.0,0.0
20765849,16422,0,0.998046875,-0.017578125,0.013671875,-0.00390625,0.0,0.0,0.0
20767099,16423,0,1.00390625,-0.021484375,0.013671875,-0.0078125,0.0,0.0,0.0
20768351,16424,0,1.0078125,-0.021484375,0.015625,-0.005859375,0.0,0.0,0.0
20769602,16425,0,1.01171875,-0.0234375,0.015625,-0.0078125,0.0,0.0,0.0
20770854,16426,0,1.001953125,-0.021484375,0.015625,-0.005859375,0.0,0.0,0.0
20772104,16427,0,1.01953125,-0.0234375,0.013671875,-0.009765625,0.0,0.0,0.0
20773354,16428,0,1.013671875,-0.01953125,0.013671875,-0.005859375,0.0,0.0,0.0
20774605,16429,0,1.00390625,-0.01953125,0.021484375,0.001953125,0.0,0.0,0.0
20775855,16430,0,1.0078125,-0.017578125,0.015625,-0.001953125,0.0,0.0,0.0
20777107,16431,0,0.99609375,-0.02734375,0.017578125,-0.009765625,0.0,0.0,0.0
20778358,16432,0,1.0,-0.01953125,0.021484375,0.001953125,0.0,0.0,0.0
20779609,16433,0,1.00390625,-0.021484375,0.013671875,-0.0078125,0.0,0.0,0.0
20780859,16434,0,1.005859375,-0.021484375,0.021484375,0.0,0.0,0.0,0.0
20782111,16435,0,1.001953125,-0.0234375,0.01171875,-0.01171875,0.0,0.0,0.0
20783362,16436,0,1.005859375,-0.025390625,0.01171875,-0.013671875,0.0,0.0,0.0
20784613,16437,0,1.005859375,-0.021484375,0.015625,-0.005859375,0.0,0.0,0.0
20785865,16438,0,1.00390625,-0.021484375,0.01953125,-0.001953125,0.0,0.0,0.0
20787115,16439,0,1.00390625,-0.021484375,0.013671875,-0.0078125,0.0,0.0,0.0
20788365,16440,0,1.005859375,-0.0234375,0.01953125,-0.00390625,0.0,0.0,0.0
20789617,16441,0,1.00390625,-0.025390625,0.01171875,-0.013671875,0.0,0.0,0.0
20790867,16442,0,1.005859375,-0.03125,0.01953125,-0.01171875,0.0,0.0,0.0
20792118,16443,0,1.009765625,-0.0234375,0.009765625,-0.013671875,0.0,0.0,0.0
20793369,16444,0,1.001953125,-0.029296875,0.01171875,-0.017578125,0.0,0.0,0.0
20794620,16445,0,1.015625,-0.033203125,0.00390625,-0.029296875,0.0,0.0,0.0
20795871,16446,0,1.00390625,-0.021484375,0.01953125,-0.001953125,0.0,0.0,0.0
20797123,16447,0,1.0078125,-0.0234375,0.01953125,-0.00390625,0.0,0.0,0.0
20798374,16448,0,1.013671875,-0.033203125,0.01171875,-0.021484375,0.0,0.0,0.0
20799624,16449,0,1.00390625,-0.029296875,0.01171875,-0.017578125,0.0,0.0,0.0
20800875,16450,0,1.00390625,-0.033203125,0.015625,-0.017578125,0.0,0.0,0.0
20802125,16451,0,1.00390625,-0.033203125,0.0078125,-0.025390625,0.0,0.0,0.0
20803375,16452,0,1.005859375,-0.03125,0.01953125,-0.01171875,0.0,0.0,0.0
20804626,16453,0,1.00390625,-0.03125,0.01953125,-0.01171875,0.0,0.0,0.0
20805877,16454,0,1.0,-0.03125,0.015625,-0.015625,0.0,0.0,0.0
20807129,16455,0,0.99609375,-0.02734375,0.01953125,-0.0078125,0.0,0.0,0.0
20808380,16456,0,1.001953125,-0.033203125,0.015625,-0.017578125,0.0,0.0,0.0
20809630,16457,0,1.001953125,-0.033203125,0.00390625,-0.029296875,0.0,0.0,0.0
20810881,16458,0,1.005859375,-0.03125,0.009765625,-0.021484375,0.0,0.0,0.0
20812133,16459,0,1.005859375,-0.02734375,0.01171875,-0.015625,0.0,0.0,0.0
20813384,16460,0,1.009765625,-0.03125,0.013671875,-0.017578125,0.0,0.0,0.0
20814634,16461,0,1.0078125,-0.029296875,0.01171875,-0.017578125,0.0,0.0,0.0
20815886,16462,0,1.009765625,-0.029296875,0.009765625,-0.01953125,0.0,0.0,0.0
20817136,16463,0,0.998046875,-0.025390625,0.017578125,-0.0078125,0.0,0.0,0.0
20818386,16464,0,1.0,-0.029296875,0.01953125,-0.009765625,0.0,0.0,0.0
20819638,16465,0,1.009765625,-0.03125,0.01953125,-0.01171875,0.0,0.0,0.0
20820888,16466,0,1.0,-0.029296875,0.009765625,-0.01953125,0.0,0.0,0.0
20822139,16467,0,0.998046875,-0.025390625,0.009765625,-0.015625,0.0,0.0,0.0
20823391,16468,0,1.001953125,-0.025390625,0.017578125,-0.0078125,0.0,0.0,0.0
20824641,16469,0,1.005859375,-0.0234375,0.015625,-0.0078125,0.0,0.0,0.0
20825892,16470,0,0.99609375,-0.02734375,0.01953125,-0.0078125,0.0,0.0,0.0
20827142,16471,0,1.001953125,-0.021484375,0.017578125,-0.00390625,0.0,0.0,0.0
20828393,16472,0,1.001953125,-0.025390625,0.015625,-0.009765625,0.0,0.0,0.0
20829645,16473,0,1.0,-0.02734375,0.013671875,-0.013671875,0.0,0.0,0.0
20830895,16474,0,1.00390625,-0.0234375,0.017578125,-0.005859375,0.0,0.0,0.0
20832147,16475,0,1.0,-0.01953125,0.021484375,0.001953125,0.0,0.0,0.0
20833397,16476,0,1.0,-0.021484375,0.017578125,-0.00390625,0.0,0.0,0.0
20834649,16477,0,1.001953125,-0.0234375,0.015625,-0.0078125,0.0,0.0,0.0
20835899,16478,0,1.0078125,-0.0234375,0.01953125,-0.00390625,0.0,0.0,0.0
20837149,16479,0,1.00390625,-0.021484375,0.01953125,-0.001953125,0.0,0.0,0.0
20838399,16480,0,1.001953125,-0.021484375,0.017578125,-0.00390625,0.0,0.0,0.0
20839650,16481,0,1.0,-0.01953125,0.01953125,0.0,0.0,0.0,0.0
20840902,16482,0,0.99609375,-0.025390625,0.01953125,-0.005859375,0.0,0.0,0.0
20842153,16483,0,0.998046875,-0.017578125,0.01953125,0.001953125,0.0,0.0,0.0
20843404,16484,0,1.005859375,-0.01953125,0.01171875,-0.0078125,0.0,0.0,0.0
20844654,16485,0,1.001953125,-0.0234375,0.0234375,0.0,0.0,0.0,0.0
20845904,16486,0,1.0,-0.0234375,0.021484375,-0.001953125,0.0,0.0,0.0
20847155,16487,0,1.001953125,-0.017578125,0.021484375,0.00390625,0.0,0.0,0.0
20848407,16488,0,1.005859375,-0.025390625,0.013671875,-0.01171875,0.0,0.0,0.0
20849657,16489,0,0.98828125,-0.025390625,0.017578125,-0.0078125,0.0,0.0,0.0
20850909,16490,0,0.99609375,-0.01953125,0.01953125,0.0,0.0,0.0,0.0
20852159,16491,0,0.99609375,-0.021484375,0.013671875,-0.0078125,0.0,0.0,0.0
20853409,16492,0,0.998046875,-0.025390625,0.0078125,-0.017578125,0.0,0.0,0.0
20854661,16493,0,1.005859375,-0.0234375,0.01171875,-0.01171875,0.0,0.0,0.0
20855911,16494,0,1.0078125,-0.02734375,0.0078125,-0.01953125,0.0,0.0,0.0
20857161,16495,0,1.00390625,-0.02734375,0.01953125,-0.0078125,0.0,0.0,0.0
20858411,16496,0,1.005859375,-0.029296875,0.0078125,-0.021484375,0.0,0.0,0.0
20859663,16497,0,1.00390625,-0.025390625,0.015625,-0.009765625,0.0,0.0,0.0
20860913,16498,0,1.005859375,-0.029296875,0.013671875,-0.015625,0.0,0.0,0.0
20862164,16499,0,1.0078125,-0.03125,0.01171875,-0.01953125,0.0,0.0,0.0
20863415,16500,0,1.0078125,-0.03125,0.013671875,-0.017578125,0.0,0.0,0.0
20864666,16501,0,1.00390625,-0.02734375,0.015625,-0.01171875,0.0,0.0,0.0
20865916,16502,0,1.00390625,-0.02734375,0.017578125,-0.009765625,0.0,0.0,0.0
20867167,16503,0,0.998046875,-0.03125,0.017578125,-0.013671875,0.0,0.0,0.0
20868417,16504,0,0.99609375,-0.03125,0.01171875,-0.01953125,0.0,0.0,0.0
20869668,16505,0,1.0,-0.029296875,0.017578125,-0.01171875,0.0,0.0,0.0
20870920,16506,0,1.001953125,-0.02734375,0.01171875,-0.015625,0.0,0.0,0.0
20872171,16507,0,1.013671875,-0.025390625,0.00390625,-0.021484375,0.0,0.0,0.0
20873421,16508,0,0.998046875,-0.033203125,0.01953125,-0.013671875,0.0,0.0,0.0
20874672,16509,0,1.0078125,-0.025390625,0.01953125,-0.005859375,0.0,0.0,0.0
20875924,16510,0,1.00390625,-0.02734375,0.017578125,-0.009765625,0.0,0.0,0.0
20877174,16511,0,1.0,-0.02734375,0.009765625,-0.017578125,0.0,0.0,0.0
20878425,16512,0,1.005859375,-0.029296875,0.017578125,-0.01171875,0.0,0.0,0.0
20879677,16513,0,1.00390625,-0.02734375,0.013671875,-0.013671875,0.0,0.0,0.0
20880927,16514,0,1.0078125,-0.02734375,0.021484375,-0.005859375,0.0,0.0,0.0
20882177,16515,0,1.0,-0.02734375,0.01171875,-0.015625,0.0,0.0,0.0
20883429,16516,0,1.005859375,-0.0234375,0.013671875,-0.009765625,0.0,0.0,0.0
20884679,16517,0,1.00390625,-0.025390625,0.013671875,-0.01171875,0.0,0.0,0.0
20885931,16518,0,1.00390625,-0.02734375,0.01953125,-0.0078125,0.0,0.0,0.0
20887181,16519,0,1.001953125,-0.029296875,0.013671875,-0.015625,0.0,0.0,0.0
20888431,16520,0,1.0078125,-0.025390625,0.017578125,-0.0078125,0.0,0.0,0.0
20889683,16521,0,1.001953125,-0.029296875,0.013671875,-0.015625,0.0,0.0,0.0
20890933,16522,0,1.009765625,-0.02734375,0.01171875,-0.015625,0.0,0.0,0.0
20892183,16523,0,1.00390625,-0.029296875,0.013671875,-0.015625,0.0,0.0,0.0
20893434,16524,0,1.001953125,-0.025390625,0.013671875,-0.01171875,0.0,0.0,0.0
20894685,16525,0,1.001953125,-0.0234375,0.017578125,-0.005859375,0.0,0.0,0.0
20895936,16526,0,1.00390625,-0.0234375,0.017578125,-0.005859375,0.0,0.0,4.4792070388793945
20898437,16528,0,0.994140625,-0.0234375,0.017578125,-0.005859375,0.0,0.0,0.0
20899687,16529,0,1.0078125,-0.021484375,0.015625,-0.005859375,0.0,0.0,0.0
20900937,16530,0,1.0078125,-0.021484375,0.0078125,-0.013671875,0.0,0.0,0.0
20902188,16531,0,1.0078125,-0.025390625,0.017578125,-0.0078125,0.0,0.0,0.0
20903440,16532,0,1.001953125,-0.01953125,0.017578125,-0.001953125,0.0,0.0,0.0
20904690,16533,0,1.009765625,-0.0234375,0.0234375,0.0,0.0,0.0,0.0
20905942,16534,0,1.001953125,-0.01953125,0.017578125,-0.001953125,0.0,0.0,0.0
20907193,16535,0,1.005859375,-0.021484375,0.017578125,-0.00390625,0.0,0.0,0.0
20908445,16536,0,1.001953125,-0.021484375,0.013671875,-0.0078125,0.0,0.0,0.0
20909695,16537,0,1.005859375,-0.0234375,0.01171875,-0.01171875,0.0,0.0,0.0
20910947,16538,0,1.00390625,-0.0234375,0.015625,-0.0078125,0.0,0.0,0.0
20912198,16539,0,0.998046875,-0.021484375,0.01953125,-0.001953125,0.0,0.0,0.0
20913450,16540,0,1.001953125,-0.025390625,0.025390625,0.0,0.0,0.0,0.0
20914700,16541,0,1.00390625,-0.0234375,0.017578125,-0.005859375,0.0,0.0,0.0
20915952,16542,0,1.005859375,-0.025390625,0.015625,-0.009765625,0.0,0.0,0.0
20917203,16543,0,1.005859375,-0.025390625,0.015625,-0.009765625,0.0,0.0,0.0
20918454,16544,0,1.001953125,-0.0234375,0.01171875,-0.01171875,0.0,0.0,0.0
20919705,16545,0,1.005859375,-0.0234375,0.017578125,-0.005859375,0.0,0.0,0.0
20920957,16546,0,1.005859375,-0.0234375,0.015625,-0.0078125,0.0,0.0,0.0
20922207,16547,0,1.005859375,-0.02734375,0.015625,-0.01171875,0.0,0.0,0.0
20923459,16548,0,1.0078125,-0.03125,0.01953125,-0.01171875,0.0,0.0,0.0
20924709,16549,0,1.00390625,-0.025390625,0.013671875,-0.01171875,0.0,0.0,0.0
20925959,16550,0,1.001953125,-0.01953125,0.013671875,-0.005859375,0.0,0.0,0.0
20927209,16551,0,0.994140625,-0.025390625,0.009765625,-0.015625,0.0,0.0,0.0
20928459,16552,0,0.99609375,-0.03125,0.009765625,-0.021484375,0.0,0.0,0.0
20929711,16553,0,0.998046875,-0.029296875,0.009765625,-0.01953125,0.0,0.0,0.0
20930961,16554,0,0.998046875,-0.02734375,0.009765625,-0.017578125,0.0,0.0,0.0
20932213,16555,0,1.013671875,-0.02734375,0.013671875,-0.013671875,0.0,0.0,0.0
20933464,16556,0,0.998046875,-0.03125,0.01171875,-0.01953125,0.0,0.0,0.0
20934715,16557,0,1.005859375,-0.029296875,0.013671875,-0.015625,0.0,0.0,0.0
20935966,16558,0,1.00390625,-0.0234375,0.017578125,-0.005859375,0.0,0.0,0.0
20937216,16559,0,1.00390625,-0.029296875,0.01171875,-0.017578125,0.0,0.0,0.0
20938467,16560,0,1.005859375,-0.025390625,0.01953125,-0.005859375,0.0,0.0,0.0
20939718,16561,0,1.0,-0.03125,0.017578125,-0.013671875,0.0,0.0,0.0
20940968,16562,0,1.00390625,-0.03125,0.013671875,-0.017578125,0.0,0.0,0.0
20942219,16563,0,1.00390625,-0.0234375,0.015625,-0.0078125,0.0,0.0,0.0
20943470,16564,0,0.998046875,-0.03125,0.009765625,-0.021484375,0.0,0.0,0.0
20944721,16565,0,1.001953125,-0.025390625,0.015625,-0.009765625,0.0,0.0,0.0
20945971,16566,0,1.0078125,-0.025390625,0.013671875,-0.01171875,0.0,0.0,0.0
20947223,16567,0,0.99609375,-0.025390625,0.017578125,-0.0078125,0.0,0.0,0.0
20948473,16568,0,1.001953125,-0.03125,0.013671875,-0.017578125,0.0,0.0,0.0
20949723,16569,0,1.0078125,-0.0234375,0.013671875,-0.009765625,0.0,0.0,0.0
20950975,16570,0,1.01171875,-0.025390625,0.015625,-0.009765625,0.0,0.0,0.0
20952226,16571,0,1.00390625,-0.025390625,0.015625,-0.009765625,0.0,0.0,0.0
20953476,16572,0,0.99609375,-0.029296875,0.021484375,-0.0078125,0.0,0.0,0.0
20954728,16573,0,1.0,-0.0234375,0.017578125,-0.005859375,0.0,0.0,0.0
20955979,16574,0,1.009765625,-0.02734375,0.015625,-0.01171875,0.0,0.0,0.0
20957229,16575,0,1.0078125,-0.02734375,0.01171875,-0.015625,0.0,0.0,0.0
20958481,16576,0,1.005859375,-0.025390625,0.015625,-0.009765625,0.0,0.0,0.0
20959731,16577,0,1.0078125,-0.025390625,0.017578125,-0.0078125,0.0,0.0,0.0
20960981,16578,0,1.005859375,-0.021484375,0.021484375,0.0,0.0,0.0,0.0
20962232,16579,0,1.005859375,-0.0234375,0.017578125,-0.005859375,0.0,0.0,0.0
20963483,16580,0,1.0078125,-0.0234375,0.015625,-0.0078125,0.0,0.0,0.0
20964734,16581,0,1.009765625,-0.021484375,0.017578125,-0.00390625,0.0,0.0,0.0
20965986,16582,0,1.005859375,-0.0234375,0.01171875,-0.01171875,0.0,0.0,0.0
20967236,16583,0,1.005859375,-0.021484375,0.015625,-0.005859375,0.0,0.0,0.0
20968486,16584,0,1.00390625,-0.0234375,0.015625,-0.0078125,0.0,0.0,0.0
20969737,16585,0,1.001953125,-0.021484375,0.013671875,-0.0078125,0.0,0.0,0.0
20970987,16586,0,1.0078125,-0.01953125,0.01953125,0.0,0.0,0.0,0.0
20972238,16587,0,1.00390625,-0.01953125,0.017578125,-0.001953125,0.0,0.0,0.0
20973489,16588,0,1.00390625,-0.02734375,0.017578125,-0.009765625,0.0,0.0,0.0
20974740,16589,0,1.005859375,-0.02734375,0.015625,-0.01171875,0.0,0.0,0.0
20975991,16590,0,1.005859375,-0.021484375,0.01953125,-0.001953125,0.0,0.0,0.0
20977241,16591,0,0.998046875,-0.021484375,0.009765625,-0.01171875,0.0,0.0,0.0
20978492,16592,0,1.001953125,-0.0234375,0.0078125,-0.015625,0.0,0.0,0.0
20979744,16593,0,1.001953125,-0.021484375,0.021484375,0.0,0.0,0.0,0.0
20980994,16594,0,1.0,-0.02734375,0.009765625,-0.017578125,0.0,0.0,0.0
20982245,16595,0,1.001953125,-0.0234375,0.0078125,-0.015625,0.0,0.0,0.0
20983496,16596,0,1.005859375,-0.021484375,0.01953125,-0.001953125,0.0,0.0,0.0
20984747,16597,0,1.0,-0.021484375,0.017578125,-0.00390625,0.0,0.0,0.0
20985998,16598,0,1.0,-0.02734375,0.0078125,-0.01953125,0.0,0.0,0.0
20987249,16599,0,1.0078125,-0.025390625,0.015625,-0.009765625,0.0,0.0,0.0
20988499,16600,0,1.0,-0.025390625,0.015625,-0.009765625,0.0,0.0,0.0
20989751,16601,0,0.998046875,-0.0234375,0.017578125,-0.005859375,0.0,0.0,0.0
20991002,16602,0,1.0,-0.021484375,0.015625,-0.005859375,0.0,0.0,0.0
20992253,16603,0,0.998046875,-0.02734375,0.009765625,-0.017578125,0.0,0.0,0.0
20993503,16604,0,1.005859375,-0.025390625,0.013671875,-0.01171875,0.0,0.0,0.0
20994755,16605,0,1.0,-0.03125,0.015625,-0.015625,0.0,0.0,0.0
20996005,16606,0,0.998046875,-0.021484375,0.005859375,-0.015625,0.0,0.0,0.0
20997256,16607,0,1.0078125,-0.029296875,0.0078125,-0.021484375,0.0,0.0,0.0
20998506,16608,0,1.005859375,-0.03125,0.013671875,-0.017578125,0.0,0.0,0.0
20999757,16609,0,1.00390625,-0.029296875,0.013671875,-0.015625,0.0,0.0,0.0
21001008,16610,0,1.00390625,-0.02734375,0.015625,-0.01171875,0.0,0.0,0.0
21002258,16611,0,1.001953125,-0.029296875,0.017578125,-0.01171875,0.0,0.0,0.0
21003508,16612,0,1.00390625,-0.02734375,0.009765625,-0.017578125,0.0,0.0,0.0
21004759,16613,0,1.001953125,-0.02734375,0.01171875,-0.015625,0.0,0.0,0.0
21006009,16614,0,0.99609375,-0.03125,0.021484375,-0.009765625,0.0,0.0,0.0
21007259,16615,0,0.99609375,-0.02734375,0.015625,-0.01171875,0.0,0.0,0.0
21008510,16616,0,1.0078125,-0.03125,0.0234375,-0.0078125,0.0,0.0,0.0
21009762,16617,0,0.998046875,-0.0234375,0.015625,-0.0078125,0.0,0.0,0.0
21011012,16618,0,0.998046875,-0.02734375,0.01953125,-0.0078125,0.0,0.0,0.0
21012271,16619,0,1.00390625,-0.029296875,0.0078125,-0.021484375,0.0,0.0,0.0
21013521,16620,0,1.005859375,-0.025390625,0.013671875,-0.01171875,0.0,0.0,0.0
21014773,16621,0,1.00390625,-0.029296875,0.01171875,-0.017578125,0.0,0.0,0.0
21016023,16622,0,1.0,-0.029296875,0.015625,-0.013671875,0.0,0.0,0.0
21017274,16623,0,1.00390625,-0.029296875,0.017578125,-0.01171875,0.0,0.0,0.0
21018525,16624,0,1.00390625,-0.025390625,0.013671875,-0.01171875,0.0,0.0,0.0
21019776,16625,0,1.0,-0.021484375,0.01953125,-0.001953125,0.0,0.0,0.0
21021026,16626,0,0.998046875,-0.03125,0.009765625,-0.021484375,0.0,0.0,0.0
21022276,16627,0,1.005859375,-0.02734375,0.013671875,-0.013671875,0.0,0.0,0.0
21023527,16628,0,1.00390625,-0.0234375,0.01171875,-0.01171875,0.0,0.0,0.0
21024778,16629,0,1.005859375,-0.02734375,0.01953125,-0.0078125,0.0,0.0,0.0
21026029,16630,0,1.005859375,-0.02734375,0.017578125,-0.009765625,0.0,0.0,0.0
21027280,16631,0,1.00390625,-0.02734375,0.01953125,-0.0078125,0.0,0.0,0.0
21028531,16632,0,1.005859375,-0.021484375,0.017578125,-0.00390625,0.0,0.0,0.0
21029783,16633,0,1.009765625,-0.0234375,0.017578125,-0.005859375,0.0,0.0,0.0
21031034,16634,0,1.009765625,-0.0234375,0.025390625,0.001953125,0.0,0.0,0.0
21032286,16635,0,1.0078125,-0.017578125,0.01953125,0.001953125,0.0,0.0,0.0
21033537,16636,0,1.005859375,-0.0234375,0.013671875,-0.009765625,0.0,0.0,0.0
21034789,16637,0,0.998046875,-0.025390625,0.015625,-0.009765625,0.0,0.0,0.0
21036039,16638,0,1.005859375,-0.021484375,0.013671875,-0.0078125,0.0,0.0,0.0
21037289,16639,0,0.998046875,-0.029296875,0.01953125,-0.009765625,0.0,0.0,0.0
21038541,16640,0,1.0,-0.029296875,0.0078125,-0.021484375,0.0,0.0,0.0
21039792,16641,0,0.998046875,-0.025390625,0.015625,-0.009765625,0.0,0.0,0.0
21041044,16642,0,1.001953125,-0.021484375,0.01953125,-0.001953125,0.0,0.0,0.0
21042294,16643,0,1.005859375,-0.0234375,0.015625,-0.0078125,0.0,0.0,0.0
21043544,16644,0,1.0078125,-0.0234375,0.017578125,-0.005859375,0.0,0.0,0.0
21044795,16645,0,1.0078125,-0.0234375,0.01953125,-0.00390625,0.0,0.0,0.0
21046045,16646,0,1.00390625,-0.029296875,0.013671875,-0.015625,0.0,0.0,0.0
21047295,16647,0,1.00390625,-0.02734375,0.013671875,-0.013671875,0.0,0.0,0.0
21048546,16648,0,0.998046875,-0.025390625,0.01171875,-0.013671875,0.0,0.0,0.0
21049797,16649,0,1.005859375,-0.025390625,0.01953125,-0.005859375,0.0,0.0,0.0
21051048,16650,0,1.005859375,-0.0234375,0.013671875,-0.009765625,0.0,0.0,0.0
21052299,16651,0,1.001953125,-0.02734375,0.017578125,-0.009765625,0.0,0.0,0.0
21053550,16652,0,1.0,-0.02734375,0.015625,-0.01171875,0.0,0.0,0.0
21054800,16653,0,1.001953125,-0.025390625,0.01953125,-0.005859375,0.0,0.0,0.0
21056052,16654,0,1.0,-0.02734375,0.017578125,-0.009765625,0.0,0.0,0.0
21057303,16655,0,1.009765625,-0.025390625,0.01953125,-0.005859375,0.0,0.0,0.0
21058554,16656,0,1.0,-0.0234375,0.017578125,-0.005859375,0.0,0.0,0.0
21059805,16657,0,1.005859375,-0.025390625,0.01171875,-0.013671875,0.0,0.0,0.0
21061057,16658,0,1.01171875,-0.029296875,0.015625,-0.013671875,0.0,0.0,0.0
21062308,16659,0,1.00390625,-0.0234375,0.01953125,-0.00390625,0.0,0.0,0.0
21063560,16660,0,1.009765625,-0.0234375,0.01953125,-0.00390625,0.0,0.0,0.0
21064811,16661,0,1.009765625,-0.0234375,0.0078125,-0.015625,0.0,0.0,0.0
21066063,16662,0,1.001953125,-0.025390625,0.015625,-0.009765625,0.0,0.0,0.0
21067314,16663,0,1.001953125,-0.02734375,0.015625,-0.01171875,0.0,0.0,0.0
21068565,16664,0,1.001953125,-0.0234375,0.017578125,-0.005859375,0.0,0.0,0.0
21069816,16665,0,1.0078125,-0.025390625,0.013671875,-0.01171875,0.0,0.0,0.0
21071066,16666,0,1.005859375,-0.025390625,0.009765625,-0.015625,0.0,0.0,0.0
21072318,16667,0,1.0078125,-0.02734375,0.009765625,-0.017578125,0.0,0.0,0.0
21073569,16668,0,1.0078125,-0.02734375,0.013671875,-0.013671875,0.0,0.0,0.0
21074819,16669,0,1.0078125,-0.02734375,0.013671875,-0.013671875,0.0,0.0,0.0
21076070,16670,0,1.00390625,-0.025390625,0.013671875,-0.01171875,0.0,0.0,0.0
21077321,16671,0,1.001953125,-0.025390625,0.01171875,-0.013671875,0.0,0.0,0.0
21078572,16672,0,1.0078125,-0.021484375,0.01171875,-0.009765625,0.0,0.0,0.0
21079823,16673,0,1.005859375,-0.0234375,0.013671875,-0.009765625,0.0,0.0,0.0
21081074,16674,0,1.00390625,-0.029296875,0.01171875,-0.017578125,0.0,0.0,0.0
21082325,16675,0,1.0078125,-0.03125,0.01171875,-0.01953125,0.0,0.0,0.0
21083575,16676,0,0.998046875,-0.02734375,0.01171875,-0.015625,0.0,0.0,0.0
21084825,16677,0,1.001953125,-0.03125,0.015625,-0.015625,0.0,0.0,0.0
21086076,16678,0,0.998046875,-0.025390625,0.01953125,-0.005859375,0.0,0.0,0.0
21087326,16679,0,1.0,-0.02734375,0.015625,-0.01171875,0.0,0.0,0.0
21088577,16680,0,1.005859375,-0.025390625,0.005859375,-0.01953125,0.0,0.0,0.0
21089828,16681,0,0.998046875,-0.02734375,0.01953125,-0.0078125,0.0,0.0,0.0
21091078,16682,0,1.00390625,-0.021484375,0.01953125,-0.001953125,0.0,0.0,0.0
21092329,16683,0,0.99609375,-0.025390625,0.01953125,-0.005859375,0.0,0.0,0.0
21093581,16684,0,0.99609375,-0.02734375,0.017578125,-0.009765625,0.0,0.0,0.0
21094833,16685,0,0.998046875,-0.0234375,0.009765625,-0.013671875,0.0,0.0,0.0
21096083,16686,0,1.0,-0.02734375,0.015625,-0.01171875,0.0,0.0,0.0
21097333,16687,0,1.005859375,-0.0234375,0.015625,-0.0078125,0.0,0.0,0.0
21098584,16688,0,1.005859375,-0.0234375,0.015625,-0.0078125,0.0,0.0,0.0
21099835,16689,0,0.99609375,-0.0234375,0.01171875,-0.01171875,0.0,0.0,0.0
21101085,16690,0,1.0,-0.025390625,0.009765625,-0.015625,0.0,0.0,0.0
21102336,16691,0,1.001953125,-0.021484375,0.013671875,-0.0078125,0.0,0.0,0.0
21103587,16692,0,1.005859375,-0.0234375,0.015625,-0.0078125,0.0,0.0,0.0
21104838,16693,0,1.0,-0.029296875,0.015625,-0.013671875,0.0,0.0,0.0
21106090,16694,0,1.001953125,-0.02734375,0.013671875,-0.013671875,0.0,0.0,0.0
21107341,16695,0,1.001953125,-0.0234375,0.021484375,-0.001953125,0.0,0.0,0.0
21108592,16696,0,1.005859375,-0.021484375,0.013671875,-0.0078125,0.0,0.0,0.0
21109844,16697,0,1.009765625,-0.021484375,0.017578125,-0.00390625,0.0,0.0,0.0
21111095,16698,0,1.005859375,-0.025390625,0.017578125,-0.0078125,0.0,0.0,0.0
21112346,16699,0,1.00390625,-0.02734375,0.017578125,-0.009765625,0.0,0.0,0.0
21113597,16700,0,0.990234375,-0.021484375,0.01953125,-0.001953125,0.0,0.0,0.0
21114849,16701,0,0.994140625,-0.02734375,0.013671875,-0.013671875,0.0,0.0,0.0
21116099,16702,0,1.009765625,-0.029296875,0.009765625,-0.01953125,0.0,0.0,0.0
21117351,16703,0,1.00390625,-0.025390625,0.017578125,-0.0078125,0.0,0.0,0.0
21118602,16704,0,1.00390625,-0.0234375,0.021484375,-0.001953125,0.0,0.0,0.0
21119854,16705,0,1.001953125,-0.0234375,0.017578125,-0.005859375,0.0,0.0,0.0
21121104,16706,0,0.998046875,-0.02734375,0.013671875,-0.013671875,0.0,0.0,0.0
21122354,16707,0,1.00390625,-0.025390625,0.009765625,-0.015625,0.0,0.0,0.0
21123605,16708,0,1.0,-0.0234375,0.009765625,-0.013671875,0.0,0.0,0.0
21124855,16709,0,1.005859375,-0.025390625,0.015625,-0.009765625,0.0,0.0,0.0
21126107,16710,0,1.001953125,-0.0234375,0.021484375,-0.001953125,0.0,0.0,0.0
21127358,16711,0,1.001953125,-0.0234375,0.021484375,-0.001953125,0.0,0.0,0.0
21128609,16712,0,1.0,-0.025390625,0.017578125,-0.0078125,0.0,0.0,0.0
21129859,16713,0,1.00390625,-0.03125,0.01171875,-0.01953125,0.0,0.0,0.0
21131111,16714,0,1.00390625,-0.02734375,0.017578125,-0.009765625,0.0,0.0,0.0
21132362,16715,0,1.001953125,-0.025390625,0.013671875,-0.01171875,0.0,0.0,0.0
21133613,16716,0,1.001953125,-0.025390625,0.01171875,-0.013671875,0.0,0.0,0.0
21134865,16717,0,1.009765625,-0.029296875,0.015625,-0.013671875,0.0,0.0,0.0
21136115,16718,0,1.001953125,-0.021484375,0.01171875,-0.009765625,0.0,0.0,0.0
21137365,16719,0,1.005859375,-0.029296875,0.013671875,-0.015625,0.0,0.0,0.0
21138617,16720,0,1.009765625,-0.0234375,0.01171875,-0.01171875,0.0,0.0,0.0
21139867,16721,0,1.005859375,-0.025390625,0.013671875,-0.01171875,0.0,0.0,0.0
21141118,16722,0,1.015625,-0.025390625,0.01171875,-0.013671875,0.0,0.0,0.0
21142369,16723,0,1.0078125,-0.0234375,0.009765625,-0.013671875,0.0,0.0,0.0
21143620,16724,0,1.001953125,-0.0234375,0.0234375,0.0,0.0,0.0,0.0
21144871,16725,0,0.990234375,-0.021484375,0.013671875,-0.0078125,0.0,0.0,0.0
21146123,16726,0,1.001953125,-0.025390625,0.009765625,-0.015625,0.0,0.0,0.0
21147374,16727,0,1.001953125,-0.02734375,0.013671875,-0.013671875,0.0,0.0,0.0
21148624,16728,0,1.017578125,-0.025390625,0.0078125,-0.017578125,0.0,0.0,0.0
21149875,16729,0,1.0078125,-0.02734375,0.01171875,-0.015625,0.0,0.0,0.0
21151125,16730,0,1.009765625,-0.02734375,0.01171875,-0.015625,0.0,0.0,0.0
21152375,16731,0,1.001953125,-0.025390625,0.013671875,-0.01171875,0.0,0.0,0.0
21153626,16732,0,1.0,-0.02734375,0.025390625,-0.001953125,0.0,0.0,0.0
21154877,16733,0,1.001953125,-0.02734375,0.015625,-0.01171875,0.0,0.0,0.0
21156129,16734,0,1.001953125,-0.029296875,0.013671875,-0.015625,0.0,0.0,0.0
21157380,16735,0,1.0078125,-0.025390625,0.015625,-0.009765625,0.0,0.0,0.0
21158630,16736,0,1.001953125,-0.025390625,0.01171875,-0.013671875,0.0,0.0,0.0
21159881,16737,0,1.0078125,-0.025390625,0.017578125,-0.0078125,0.0,0.0,0.0
21161133,16738,0,1.005859375,-0.033203125,0.013671875,-0.01953125,0.0,0.0,0.0
21162384,16739,0,1.001953125,-0.0234375,0.01953125,-0.00390625,0.0,0.0,0.0
21163634,16740,0,1.005859375,-0.02734375,0.015625,-0.01171875,0.0,0.0,0.0
21164886,16741,0,1.009765625,-0.029296875,0.015625,-0.013671875,0.0,0.0,0.0
21166136,16742,0,1.0,-0.025390625,0.01953125,-0.005859375,0.0,0.0,0.0
21167386,16743,0,1.0,-0.0234375,0.009765625,-0.013671875,0.0,0.0,0.0
21168638,16744,0,1.005859375,-0.025390625,0.009765625,-0.015625,0.0,0.0,0.0
21169888,16745,0,1.009765625,-0.025390625,0.025390625,0.0,0.0,0.0,0.0
21171139,16746,0,1.0078125,-0.021484375,0.01953125,-0.001953125,0.0,0.0,0.0
21172391,16747,0,1.001953125,-0.021484375,0.009765625,-0.01171875,0.0,0.0,0.0
21173641,16748,0,0.998046875,-0.029296875,0.017578125,-0.01171875,0.0,0.0,0.0
21174892,16749,0,1.00390625,-0.025390625,0.021484375,-0.00390625,0.0,0.0,0.0
21176142,16750,0,1.00390625,-0.025390625,0.01171875,-0.013671875,0.0,0.0,0.0
21177393,16751,0,1.005859375,-0.0234375,0.017578125,-0.005859375,0.0,0.0,0.0
21178645,16752,0,1.001953125,-0.025390625,0.017578125,-0.0078125,0.0,0.0,0.0
21179895,16753,0,1.0078125,-0.0234375,0.017578125,-0.005859375,0.0,0.0,0.0
21181147,16754,0,1.001953125,-0.029296875,0.015625,-0.013671875,0.0,0.0,0.0
21182397,16755,0,1.00390625,-0.02734375,0.015625,-0.01171875,0.0,0.0,0.0
21183649,16756,0,1.00390625,-0.029296875,0.01953125,-0.009765625,0.0,0.0,0.0
21184899,16757,0,1.00390625,-0.0234375,0.015625,-0.0078125,0.0,0.0,0.0
21186149,16758,0,1.005859375,-0.02734375,0.017578125,-0.009765625,0.0,0.0,0.0
21187399,16759,0,1.001953125,-0.0234375,0.017578125,-0.005859375,0.0,0.0,0.0
21188650,16760,0,1.00390625,-0.021484375,0.01953125,-0.001953125,0.0,0.0,0.0
21189902,16761,0,1.0,-0.025390625,0.017578125,-0.0078125,0.0,0.0,0.0
21191153,16762,0,1.005859375,-0.02734375,0.01953125,-0.0078125,0.0,0.0,0.0
21192404,16763,0,1.005859375,-0.02734375,0.013671875,-0.013671875,0.0,0.0,0.0
21193654,16764,0,1.005859375,-0.0234375,0.01171875,-0.01171875,0.0,0.0,0.0
21194904,16765,0,1.0,-0.021484375,0.01171875,-0.009765625,0.0,0.0,0.0
21196155,16766,0,1.00390625,-0.017578125,0.005859375,-0.01171875,0.0,0.0,0.0
21197407,16767,0,1.00390625,-0.0234375,0.013671875,-0.009765625,0.0,0.0,0.0
21198657,16768,0,0.99609375,-0.0234375,0.021484375,-0.001953125,0.0,0.0,0.0
21199909,16769,0,1.005859375,-0.02734375,0.015625,-0.01171875,0.0,0.0,0.0
21201159,16770,0,1.0,-0.02734375,0.01953125,-0.0078125,0.0,0.0,0.0
21202409,16771,0,0.998046875,-0.025390625,0.01171875,-0.013671875,0.0,0.0,0.0
21203661,16772,0,1.0,-0.029296875,0.015625,-0.013671875,0.0,0.0,0.0
21204911,16773,0,1.0,-0.02734375,0.01953125,-0.0078125,0.0,0.0,0.0
21206161,16774,0,1.001953125,-0.02734375,0.01171875,-0.015625,0.0,0.0,0.0
21207411,16775,0,1.001953125,-0.029296875,0.01171875,-0.017578125,0.0,0.0,0.0
21208663,16776,0,1.009765625,-0.025390625,0.017578125,-0.0078125,0.0,0.0,0.0
21209913,16777,0,0.998046875,-0.025390625,0.015625,-0.009765625,0.0,0.0,0.0
21211164,16778,0,0.998046875,-0.0234375,0.017578125,-0.005859375,0.0,0.0,0.0
21212415,16779,0,1.00390625,-0.029296875,0.01171875,-0.017578125,0.0,0.0,0.0
21213666,16780,0,1.0,-0.029296875,0.009765625,-0.01953125,0.0,0.0,0.0
21214916,16781,0,1.001953125,-0.029296875,0.013671875,-0.015625,0.0,0.0,0.0
21216167,16782,0,1.001953125,-0.02734375,0.009765625,-0.017578125,0.0,0.0,0.0
21217417,16783,0,1.00390625,-0.029296875,0.009765625,-0.01953125,0.0,0.0,0.0
21218668,16784,0,1.0,-0.029296875,0.021484375,-0.0078125,0.0,0.0,0.0
21219920,16785,0,0.99609375,-0.029296875,0.021484375,-0.0078125,0.0,0.0,0.0
21221171,16786,0,0.994140625,-0.029296875,0.017578125,-0.01171875,0.0,0.0,0.0
21222423,16787,0,1.005859375,-0.02734375,0.01171875,-0.015625,0.0,0.0,0.0
21223673,16788,0,1.0,-0.025390625,0.009765625,-0.015625,0.0,0.0,0.0
21224925,16789,0,1.005859375,-0.0234375,0.017578125,-0.005859375,0.0,0.0,0.0
21226175,16790,0,1.005859375,-0.0234375,0.015625,-0.0078125,0.0,0.0,0.0
21227426,16791,0,1.0,-0.029296875,0.013671875,-0.015625,0.0,0.0,0.0
21228678,16792,0,1.00390625,-0.029296875,0.01171875,-0.017578125,0.0,0.0,0.0
21229928,16793,0,1.009765625,-0.0234375,0.0078125,-0.015625,0.0,0.0,0.0
21231179,16794,0,1.005859375,-0.025390625,0.01171875,-0.013671875,0.0,0.0,0.0
21232430,16795,0,1.001953125,-0.025390625,0.01953125,-0.005859375,0.0,0.0,0.0
21233682,16796,0,0.998046875,-0.02734375,0.015625,-0.01171875,0.0,0.0,0.0
21234932,16797,0,1.001953125,-0.02734375,0.025390625,-0.001953125,0.0,0.0,0.0
21236182,16798,0,1.00390625,-0.0234375,0.015625,-0.0078125,0.0,0.0,0.0
21237434,16799,0,0.99609375,-0.021484375,0.015625,-0.005859375,0.0,0.0,0.0
21238684,16800,0,1.00390625,-0.025390625,0.009765625,-0.015625,0.0,0.0,0.0
21239936,16801,0,1.009765625,-0.02734375,0.015625,-0.01171875,0.0,0.0,0.0
21241187,16802,0,1.00390625,-0.02734375,0.01171875,-0.015625,0.0,0.0,0.0
21242438,16803,0,1.013671875,-0.02734375,0.009765625,-0.017578125,0.0,0.0,0.0
21243690,16804,0,1.009765625,-0.02734375,0.017578125,-0.009765625,0.0,0.0,0.0
21244941,16805,0,1.005859375,-0.029296875,0.021484375,-0.0078125,0.0,0.0,0.0
21246191,16806,0,0.998046875,-0.021484375,0.015625,-0.005859375,0.0,0.0,0.0
21247441,16807,0,1.001953125,-0.0234375,0.005859375,-0.017578125,0.0,0.0,0.0
21248693,16808,0,1.005859375,-0.02734375,0.01171875,-0.015625,0.0,0.0,0.0
21249943,16809,0,1.0,-0.0234375,0.015625,-0.0078125,0.0,0.0,0.0
21251193,16810,0,1.00390625,-0.025390625,0.015625,-0.009765625,0.0,0.0,0.0
21252445,16811,0,1.0078125,-0.02734375,0.0078125,-0.01953125,0.0,0.0,0.0
21253695,16812,0,1.005859375,-0.0234375,0.0078125,-0.015625,0.0,0.0,0.0
21254947,16813,0,1.0078125,-0.02734375,0.01171875,-0.015625,0.0,0.0,0.0
21256198,16814,0,1.00390625,-0.0234375,0.01953125,-0.00390625,0.0,0.0,0.0
21257450,16815,0,1.0,-0.025390625,0.017578125,-0.0078125,0.0,0.0,0.0
21258700,16816,0,1.005859375,-0.021484375,0.009765625,-0.01171875,0.0,0.0,0.0
21259952,16817,0,1.0,-0.02734375,0.017578125,-0.009765625,0.0,0.0,0.0
21261203,16818,0,1.005859375,-0.0234375,0.013671875,-0.009765625,0.0,0.0,0.0
21262454,16819,0,1.00390625,-0.0234375,0.017578125,-0.005859375,0.0,0.0,0.0
21263705,16820,0,1.0,-0.025390625,0.017578125,-0.0078125,0.0,0.0,0.0
21264957,16821,0,0.998046875,-0.021484375,0.015625,-0.005859375,0.0,0.0,0.0
21266207,16822,0,1.00390625,-0.021484375,0.01953125,-0.001953125,0.0,0.0,0.0
21267459,16823,0,1.005859375,-0.025390625,0.017578125,-0.0078125,0.0,0.0,0.0
21268709,16824,0,1.005859375,-0.025390625,0.017578125,-0.0078125,0.0,0.0,0.0
21269959,16825,0,1.001953125,-0.03125,0.017578125,-0.013671875,0.0,0.0,0.0
21271209,16826,0,1.001953125,-0.02734375,0.009765625,-0.017578125,0.0,0.0,0.0
21272459,16827,0,1.001953125,-0.033203125,0.015625,-0.017578125,0.0,0.0,0.0
21273711,16828,0,0.99609375,-0.0234375,0.015625,-0.0078125,0.0,0.0,0.0
21274961,16829,0,1.015625,-0.02734375,0.013671875,-0.013671875,0.0,0.0,0.0
21276213,16830,0,1.00390625,-0.01953125,0.017578125,-0.001953125,0.0,0.0,0.0
21277464,16831,0,1.009765625,-0.025390625,0.013671875,-0.01171875,0.0,0.0,0.0
21278715,16832,0,1.001953125,-0.015625,0.021484375,0.005859375,0.0,0.0,0.0
21279966,16833,0,1.005859375,-0.017578125,0.009765625,-0.0078125,0.0,0.0,0.0
21281216,16834,0,1.005859375,-0.021484375,0.021484375,0.0,0.0,0.0,0.0
21282467,16835,0,1.001953125,-0.02734375,0.013671875,-0.013671875,0.0,0.0,0.0
21283718,16836,0,1.001953125,-0.02734375,0.009765625,-0.017578125,0.0,0.0,0.0
21284968,16837,0,1.00390625,-0.029296875,0.013671875,-0.015625,0.0,0.0,0.0
21286219,16838,0,1.0078125,-0.029296875,0.01171875,-0.017578125,0.0,0.0,0.0
21287470,16839,0,1.0078125,-0.033203125,0.013671875,-0.01953125,0.0,0.0,0.0
21288721,16840,0,1.005859375,-0.03125,0.015625,-0.015625,0.0,0.0,0.0
21289971,16841,0,0.998046875,-0.02734375,0.017578125,-0.009765625,0.0,0.0,0.0
21291223,16842,0,1.0078125,-0.0234375,0.01171875,-0.01171875,0.0,0.0,0.0
21292473,16843,0,1.001953125,-0.021484375,0.01171875,-0.009765625,0.0,0.0,0.0
21293723,16844,0,0.998046875,-0.021484375,0.01953125,-0.001953125,0.0,0.0,0.0
21294975,16845,0,1.005859375,-0.021484375,0.01171875,-0.009765625,0.0,0.0,0.0
21296226,16846,0,1.0,-0.02734375,0.021484375,-0.005859375,0.0,0.0,0.0
21297476,16847,0,0.998046875,-0.021484375,0.013671875,-0.0078125,0.0,0.0,0.0
21298728,16848,0,1.005859375,-0.0234375,0.013671875,-0.009765625,0.0,0.0,0.0
21299979,16849,0,1.0,-0.03515625,0.01953125,-0.015625,0.0,0.0,0.0
21301229,16850,0,0.99609375,-0.025390625,0.017578125,-0.0078125,0.0,0.0,0.0
21302481,16851,0,1.009765625,-0.03125,0.017578125,-0.013671875,0.0,0.0,0.0
21303731,16852,0,1.001953125,-0.02734375,0.009765625,-0.017578125,0.0,0.0,0.0
21304981,16853,0,1.001953125,-0.033203125,0.021484375,-0.01171875,0.0,0.0,0.0
21306232,16854,0,1.005859375,-0.017578125,0.01171875,-0.005859375,0.0,0.0,0.0
21307483,16855,0,0.998046875,-0.017578125,0.015625,-0.001953125,0.0,0.0,0.0
21308734,16856,0,1.001953125,-0.021484375,0.015625,-0.005859375,0.0,0.0,0.0
21309986,16857,0,1.009765625,-0.021484375,0.01953125,-0.001953125,0.0,0.0,0.0
21311236,16858,0,1.0078125,-0.02734375,0.013671875,-0.013671875,0.0,0.0,0.0
21312486,16859,0,1.0078125,-0.021484375,0.01953125,-0.001953125,0.0,0.0,0.0
21313737,16860,0,1.001953125,-0.021484375,0.017578125,-0.00390625,0.0,0.0,0.0
21314987,16861,0,1.001953125,-0.025390625,0.013671875,-0.01171875,0.0,0.0,0.0
21316238,16862,0,1.00390625,-0.02734375,0.015625,-0.01171875,0.0,0.0,0.0
21317489,16863,0,1.00390625,-0.021484375,0.015625,-0.005859375,0.0,0.0,0.0
21318740,16864,0,1.005859375,-0.025390625,0.017578125,-0.0078125,0.0,0.0,0.0
21319991,16865,0,1.009765625,-0.025390625,0.01171875,-0.013671875,0.0,0.0,0.0
21321241,16866,0,0.998046875,-0.025390625,0.013671875,-0.01171875,0.0,0.0,0.0
21322492,16867,0,1.005859375,-0.0234375,0.009765625,-0.013671875,0.0,0.0,0.0
21323744,16868,0,1.0,-0.0234375,0.009765625,-0.013671875,0.0,0.0,0.0
21324994,16869,0,1.005859375,-0.029296875,0.017578125,-0.01171875,0.0,0.0,0.0
21326245,16870,0,0.99609375,-0.025390625,0.017578125,-0.0078125,0.0,0.0,0.0
21327496,16871,0,1.005859375,-0.025390625,0.013671875,-0.01171875,0.0,0.0,0.0
21328747,16872,0,1.013671875,-0.029296875,0.00390625,-0.025390625,0.0,0.0,0.0
21329998,16873,0,1.005859375,-0.029296875,0.013671875,-0.015625,0.0,0.0,0.0
21331249,16874,0,1.009765625,-0.025390625,0.01953125,-0.005859375,0.0,0.0,0.0
21332499,16875,0,1.005859375,-0.025390625,0.009765625,-0.015625,0.0,0.0,0.0
21333751,16876,0,1.001953125,-0.03515625,0.009765625,-0.025390625,0.0,0.0,0.0
21335002,16877,0,0.998046875,-0.02734375,0.01953125,-0.0078125,0.0,0.0,0.0
21336253,16878,0,1.001953125,-0.0234375,0.013671875,-0.009765625,0.0,0.0,0.0
21337503,16879,0,1.001953125,-0.02734375,0.015625,-0.01171875,0.0,0.0,0.0
21338755,16880,0,1.0,-0.025390625,0.017578125,-0.0078125,0.0,0.0,0.0
21340005,16881,0,1.0,-0.025390625,0.01171875,-0.013671875,0.0,0.0,0.0
21341256,16882,0,1.00390625,-0.02734375,0.0078125,-0.01953125,0.0,0.0,0.0
21342506,16883,0,1.0,-0.025390625,0.01171875,-0.013671875,0.0,0.0,0.0
21343757,16884,0,1.005859375,-0.021484375,0.021484375,0.0,0.0,0.0,0.0
21345008,16885,0,1.001953125,-0.025390625,0.017578125,-0.0078125,0.0,0.0,0.0
21346258,16886,0,1.005859375,-0.0234375,0.021484375,-0.001953125,0.0,0.0,0.0
21347508,16887,0,1.005859375,-0.0234375,0.01953125,-0.00390625,0.0,0.0,0.0
21348759,16888,0,1.00390625,-0.0234375,0.017578125,-0.005859375,0.0,0.0,0.0
21350009,16889,0,0.994140625,-0.02734375,0.01171875,-0.015625,0.0,0.0,0.0
21351259,16890,0,1.005859375,-0.025390625,0.013671875,-0.01171875,0.0,0.0,0.0
21352510,16891,0,1.005859375,-0.025390625,0.0078125,-0.017578125,0.0,0.0,0.0
21353762,16892,0,1.00390625,-0.0234375,0.009765625,-0.013671875,0.0,0.0,0.0
21355012,16893,0,1.005859375,-0.029296875,0.001953125,-0.02734375,0.0,0.0,0.0
21356271,16894,0,0.998046875,-0.03125,0.01171875,-0.01953125,0.0,0.0,0.0
21357521,16895,0,0.998046875,-0.0234375,0.017578125,-0.005859375,0.0,0.0,0.0
21358773,16896,0,1.005859375,-0.02734375,0.017578125,-0.009765625,0.0,0.0,0.0
21360023,16897,0,1.015625,-0.033203125,0.015625,-0.017578125,0.0,0.0,0.0
21361274,16898,0,1.0078125,-0.025390625,0.017578125,-0.0078125,0.0,0.0,0.0
21362525,16899,0,1.00390625,-0.029296875,0.01953125,-0.009765625,0.0,0.0,0.0
21363776,16900,0,1.0078125,-0.029296875,0.01953125,-0.009765625,0.0,0.0,0.0
21365026,16901,0,1.005859375,-0.0234375,0.009765625,-0.013671875,0.0,0.0,0.0
21366276,16902,0,1.001953125,-0.029296875,0.017578125,-0.01171875,0.0,0.0,0.0
21367527,16903,0,1.00390625,-0.029296875,0.015625,-0.013671875,0.0,0.0,0.0
21368778,16904,0,1.0,-0.025390625,0.01171875,-0.013671875,0.0,0.0,0.0
21370029,16905,0,1.00390625,-0.0234375,0.017578125,-0.005859375,0.0,0.0,0.0
21371280,16906,0,1.0078125,-0.025390625,0.013671875,-0.01171875,0.0,0.0,0.0
21372531,16907,0,1.005859375,-0.02734375,0.015625,-0.01171875,0.0,0.0,0.0
21373783,16908,0,1.0,-0.01953125,0.01953125,0.0,0.0,0.0,0.0
21375034,16909,0,1.00390625,-0.02734375,0.013671875,-0.013671875,0.0,0.0,0.0
21376286,16910,0,1.0078125,-0.0234375,0.015625,-0.0078125,0.0,0.0,0.0
21377537,16911,0,1.0,-0.0234375,0.01171875,-0.01171875,0.0,0.0,0.0
21378789,16912,0,1.001953125,-0.021484375,0.0078125,-0.013671875,0.0,0.0,0.0
21380039,16913,0,1.001953125,-0.029296875,0.01953125,-0.009765625,0.0,0.0,0.0
21381289,16914,0,1.0,-0.02734375,0.015625,-0.01171875,0.0,0.0,0.0
21382541,16915,0,1.009765625,-0.021484375,0.01171875,-0.009765625,0.0,0.0,0.0
21383792,16916,0,1.001953125,-0.021484375,0.013671875,-0.0078125,0.0,0.0,0.0
21385044,16917,0,1.01171875,-0.0234375,0.017578125,-0.005859375,0.0,0.0,0.0
21386294,16918,0,1.00390625,-0.025390625,0.009765625,-0.015625,0.0,0.0,0.0
21387544,16919,0,1.001953125,-0.029296875,0.013671875,-0.015625,0.0,0.0,0.0
21388795,16920,0,1.001953125,-0.025390625,0.017578125,-0.0078125,0.0,0.0,0.0
21390045,16921,0,1.0,-0.025390625,0.013671875,-0.01171875,0.0,0.0,0.0
21391295,16922,0,1.00390625,-0.0234375,0.015625,-0.0078125,0.0,0.0,0.0
21392546,16923,0,1.005859375,-0.021484375,0.01953125,-0.001953125,0.0,0.0,0.0
21393797,16924,0,1.005859375,-0.01953125,0.01171875,-0.0078125,0.0,0.0,0.0
21395048,16925,0,1.005859375,-0.01953125,0.015625,-0.00390625,0.0,0.0,0.0
21396299,16926,0,0.998046875,-0.0234375,0.015625,-0.0078125,0.0,0.0,0.0
21397550,16927,0,1.0078125,-0.029296875,0.013671875,-0.015625,0.0,0.0,0.0
21398800,16928,0,1.0078125,-0.0234375,0.01171875,-0.01171875,0.0,0.0,0.0
21400052,16929,0,1.001953125,-0.02734375,0.01953125,-0.0078125,0.0,0.0,0.0
21401303,16930,0,1.005859375,-0.017578125,0.013671875,-0.00390625,0.0,0.0,0.0
21402554,16931,0,0.998046875,-0.02734375,0.01953125,-0.0078125,0.0,0.0,0.0
21403805,16932,0,1.00390625,-0.0234375,0.017578125,-0.005859375,0.0,0.0,0.0
21405057,16933,0,1.005859375,-0.0234375,0.015625,-0.0078125,0.0,0.0,0.0
21406308,16934,0,0.99609375,-0.025390625,0.01953125,-0.005859375,0.0,0.0,0.0
21407560,16935,0,1.001953125,-0.0234375,0.013671875,-0.009765625,0.0,0.0,0.0
21408811,16936,0,1.005859375,-0.029296875,0.015625,-0.013671875,0.0,0.0,0.0
21410063,16937,0,1.00390625,-0.025390625,0.013671875,-0.01171875,0.0,0.0,0.0
21411314,16938,0,1.015625,-0.02734375,0.017578125,-0.009765625,0.0,0.0,0.0
21412565,16939,0,1.001953125,-0.0234375,0.015625,-0.0078125,0.0,0.0,0.0
21413816,16940,0,1.0,-0.03125,0.0078125,-0.0234375,0.0,0.0,0.0
21415066,16941,0,1.0078125,-0.0234375,0.017578125,-0.005859375,0.0,0.0,0.0
21416318,16942,0,0.998046875,-0.025390625,0.01953125,-0.005859375,0.0,0.0,0.0
21417569,16943,0,1.005859375,-0.0234375,0.01171875,-0.01171875,0.0,0.0,0.0
21418819,16944,0,1.001953125,-0.02734375,0.017578125,-0.009765625,0.0,0.0,0.0
21420070,16945,0,1.00390625,-0.0234375,0.015625,-0.0078125,0.0,0.0,0.0
21421321,16946,0,1.001953125,-0.029296875,0.015625,-0.013671875,0.0,0.0,0.0
21422572,16947,0,1.005859375,-0.029296875,0.017578125,-0.01171875,0.0,0.0,0.0
21423823,16948,0,1.001953125,-0.025390625,0.013671875,-0.01171875,0.0,0.0,0.0
21425074,16949,0,1.00390625,-0.029296875,0.021484375,-0.0078125,0.0,0.0,0.0
21426325,16950,0,1.001953125,-0.029296875,0.01171875,-0.017578125,0.0,0.0,0.0
21427575,16951,0,1.0078125,-0.025390625,0.01171875,-0.013671875,0.0,0.0,0.0
21428825,16952,0,1.0,-0.025390625,0.01171875,-0.013671875,0.0,0.0,0.0
21430076,16953,0,1.001953125,-0.029296875,0.01171875,-0.017578125,0.0,0.0,0.0
21431326,16954,0,1.001953125,-0.025390625,0.017578125,-0.0078125,0.0,0.0,0.0
21432577,16955,0,1.0078125,-0.02734375,0.015625,-0.01171875,0.0,0.0,0.0
21433828,16956,0,1.0,-0.025390625,0.017578125,-0.0078125,0.0,0.0,0.0
21435078,16957,0,1.00390625,-0.021484375,0.015625,-0.005859375,0.0,0.0,0.0
21436329,16958,0,1.005859375,-0.025390625,0.017578125,-0.0078125,0.0,0.0,0.0
21437581,16959,0,1.001953125,-0.01953125,0.015625,-0.00390625,0.0,0.0,0.0
21438833,16960,0,1.017578125,-0.021484375,0.021484375,0.0,0.0,0.0,0.0
21440083,16961,0,0.9921875,-0.029296875,0.0234375,-0.005859375,0.0,0.0,0.0
21441333,16962,0,1.0078125,-0.029296875,0.015625,-0.013671875,0.0,0.0,0.0
21442584,16963,0,1.001953125,-0.0234375,0.015625,-0.0078125,0.0,0.0,0.0
21443835,16964,0,1.0,-0.02734375,0.017578125,-0.009765625,0.0,0.0,0.0
21445085,16965,0,1.0,-0.02734375,0.015625,-0.01171875,0.0,0.0,0.0
21446336,16966,0,1.001953125,-0.02734375,0.013671875,-0.013671875,0.0,0.0,0.0
21447587,16967,0,1.005859375,-0.021484375,0.009765625,-0.01171875,0.0,0.0,0.0
21448838,16968,0,1.005859375,-0.025390625,0.013671875,-0.01171875,0.0,0.0,0.0
21450090,16969,0,1.0078125,-0.02734375,0.01171875,-0.015625,0.0,0.0,0.0
21451341,16970,0,1.00390625,-0.0234375,0.009765625,-0.013671875,0.0,0.0,0.0
21452592,16971,0,1.001953125,-0.025390625,0.009765625,-0.015625,0.0,0.0,0.0
21453844,16972,0,0.99609375,-0.0234375,0.009765625,-0.013671875,0.0,0.0,0.0
21455095,16973,0,1.001953125,-0.0234375,0.01953125,-0.00390625,0.0,0.0,0.0
21456346,16974,0,1.0,-0.025390625,0.017578125,-0.0078125,0.0,0.0,0.0
21457597,16975,0,1.001953125,-0.02734375,0.013671875,-0.013671875,0.0,0.0,0.0
21458849,16976,0,1.0,-0.02734375,0.017578125,-0.009765625,0.0,0.0,0.0
21460099,16977,0,1.001953125,-0.025390625,0.017578125,-0.0078125,0.0,0.0,0.0
21461351,16978,0,1.001953125,-0.0234375,0.01953125,-0.00390625,0.0,0.0,0.0
21462602,16979,0,1.0078125,-0.02734375,0.013671875,-0.013671875,0.0,0.0,0.0
21463854,16980,0,1.005859375,-0.025390625,0.01171875,-0.013671875,0.0,0.0,0.0
21465104,16981,0,1.00390625,-0.033203125,0.015625,-0.017578125,0.0,0.0,0.0
21466354,16982,0,1.001953125,-0.025390625,0.00390625,-0.021484375,0.0,0.0,0.0
21467605,16983,0,1.001953125,-0.029296875,0.01953125,-0.009765625,0.0,0.0,0.0
21468855,16984,0,0.99609375,-0.025390625,0.013671875,-0.01171875,0.0,0.0,0.0
21470107,16985,0,1.001953125,-0.025390625,0.017578125,-0.0078125,0.0,0.0,0.0
21471358,16986,0,1.005859375,-0.02734375,0.015625,-0.01171875,0.0,0.0,0.0
21472609,16987,0,1.0,-0.025390625,0.017578125,-0.0078125,0.0,0.0,0.0
21473859,16988,0,1.001953125,-0.025390625,0.01953125,-0.005859375,0.0,0.0,0.0
21475111,16989,0,1.00390625,-0.01953125,0.017578125,-0.001953125,0.0,0.0,0.0
21476362,16990,0,1.001953125,-0.0234375,0.015625,-0.0078125,0.0,0.0,0.0
21477613,16991,0,1.005859375,-0.0234375,0.021484375,-0.001953125,0.0,0.0,0.0
21478865,16992,0,0.998046875,-0.025390625,0.01953125,-0.005859375,0.0,0.0,0.0
21480115,16993,0,1.009765625,-0.02734375,0.013671875,-0.013671875,0.0,0.0,0.0
21481365,16994,0,1.0078125,-0.025390625,0.015625,-0.009765625,0.0,0.0,0.0
21482617,16995,0,1.0,-0.025390625,0.01171875,-0.013671875,0.0,0.0,0.0
21483867,16996,0,1.005859375,-0.0234375,0.015625,-0.0078125,0.0,0.0,0.0
21485118,16997,0,0.994140625,-0.025390625,0.017578125,-0.0078125,0.0,0.0,0.0
21486369,16998,0,1.0,-0.0234375,0.009765625,-0.013671875,0.0,0.0,0.0
21487620,16999,0,0.99609375,-0.029296875,0.021484375,-0.0078125,0.0,0.0,0.0
21488871,17000,0,1.0,-0.025390625,0.013671875,-0.01171875,0.0,0.0,0.0
21490123,17001,0,1.017578125,-0.021484375,0.017578125,-0.00390625,0.0,0.0,0.0
21491374,17002,0,1.013671875,-0.025390625,0.009765625,-0.015625,0.0,0.0,0.0
21492624,17003,0,1.001953125,-0.029296875,0.021484375,-0.0078125,0.0,0.0,0.0
21493875,17004,0,1.0,-0.029296875,0.005859375,-0.0234375,0.0,0.0,0.0
21495125,17005,0,1.005859375,-0.021484375,0.017578125,-0.00390625,0.0,0.0,0.0
21496375,17006,0,0.994140625,-0.021484375,0.017578125,-0.00390625,0.0,0.0,0.0
21497626,17007,0,1.0078125,-0.0234375,0.015625,-0.0078125,0.0,0.0,0.0
21498877,17008,0,1.001953125,-0.0234375,0.009765625,-0.013671875,0.0,0.0,0.0
21500129,17009,0,1.0078125,-0.02734375,0.01953125,-0.0078125,0.0,0.0,0.0
21501380,17010,0,1.009765625,-0.0234375,0.013671875,-0.009765625,0.0,0.0,0.0
21502630,17011,0,0.99609375,-0.0234375,0.01171875,-0.01171875,0.0,0.0,0.0
21503881,17012,0,0.994140625,-0.021484375,0.0078125,-0.013671875,0.0,0.0,0.0
21505133,17013,0,1.001953125,-0.0234375,0.009765625,-0.013671875,0.0,0.0,0.0
21506384,17014,0,1.00390625,-0.02734375,0.01171875,-0.015625,0.0,0.0,0.0
21507634,17015,0,1.00390625,-0.0234375,0.017578125,-0.005859375,0.0,0.0,0.0
21508886,17016,0,1.0,-0.02734375,0.017578125,-0.009765625,0.0,0.0,0.0
21510136,17017,0,1.0078125,-0.025390625,0.013671875,-0.01171875,0.0,0.0,0.0
21511386,17018,0,1.00390625,-0.021484375,0.015625,-0.005859375,0.0,0.0,0.0
21512638,17019,0,1.005859375,-0.029296875,0.021484375,-0.0078125,0.0,0.0,0.0
21513888,17020,0,1.005859375,-0.02734375,0.017578125,-0.009765625,0.0,0.0,0.0
21515139,17021,0,1.005859375,-0.0234375,0.01953125,-0.00390625,0.0,0.0,0.0
21516391,17022,0,0.99609375,-0.0234375,0.015625,-0.0078125,0.0,0.0,0.0
21517641,17023,0,1.0078125,-0.021484375,0.013671875,-0.0078125,0.0,0.0,0.0
21518892,17024,0,1.00390625,-0.01953125,0.015625,-0.00390625,0.0,0.0,0.0
21520142,17025,0,0.998046875,-0.025390625,0.015625,-0.009765625,0.0,0.0,0.0
21521393,17026,0,1.005859375,-0.0234375,0.013671875,-0.009765625,0.0,0.0,0.0
21522645,17027,0,1.0,-0.03125,0.013671875,-0.017578125,0.0,0.0,0.0
21523895,17028,0,1.0,-0.025390625,0.01953125,-0.005859375,0.0,0.0,0.0
21525147,17029,0,1.005859375,-0.029296875,0.017578125,-0.01171875,0.0,0.0,0.0
21526397,17030,0,1.005859375,-0.0234375,0.015625,-0.0078125,0.0,0.0,0.0
21527649,17031,0,1.005859375,-0.0234375,0.015625,-0.0078125,0.0,0.0,0.0
21528899,17032,0,1.009765625,-0.0234375,0.017578125,-0.005859375,0.0,0.0,0.0
21530149,17033,0,1.001953125,-0.0234375,0.013671875,-0.009765625,0.0,0.0,0.0
21531399,17034,0,1.00390625,-0.025390625,0.021484375,-0.00390625,0.0,0.0,0.0
21532650,17035,0,1.005859375,-0.02734375,0.015625,-0.01171875,0.0,0.0,0.0
21533902,17036,0,1.005859375,-0.0234375,0.009765625,-0.013671875,0.0,0.0,0.0
21535153,17037,0,1.009765625,-0.02734375,0.021484375,-0.005859375,0.0,0.0,0.0
21536404,17038,0,1.005859375,-0.02734375,0.017578125,-0.009765625,0.0,0.0,0.0
21537654,17039,0,1.005859375,-0.02734375,0.009765625,-0.017578125,0.0,0.0,0.0
21538904,17040,0,1.001953125,-0.0234375,0.013671875,-0.009765625,0.0,0.0,0.0
21540155,17041,0,1.009765625,-0.0234375,0.017578125,-0.005859375,0.0,0.0,0.0
21541407,17042,0,1.001953125,-0.025390625,0.005859375,-0.01953125,0.0,0.0,0.0
21542657,17043,0,1.0,-0.025390625,0.015625,-0.009765625,0.0,0.0,0.0
21543909,17044,0,0.998046875,-0.025390625,0.013671875,-0.01171875,0.0,0.0,0.0
21545159,17045,0,1.001953125,-0.021484375,0.01171875,-0.009765625,0.0,0.0,0.0
21546409,17046,0,1.0,-0.025390625,0.017578125,-0.0078125,0.0,0.0,0.0
21547661,17047,0,1.005859375,-0.025390625,0.0234375,-0.001953125,0.0,0.0,0.0
21548911,17048,0,1.001953125,-0.02734375,0.01953125,-0.0078125,0.0,0.0,0.0
21550161,17049,0,1.0,-0.02734375,0.01953125,-0.0078125,0.0,0.0,0.0
21551411,17050,0,1.00390625,-0.0234375,0.017578125,-0.005859375,0.0,0.0,0.0
21552663,17051,0,1.0078125,-0.02734375,0.01953125,-0.0078125,0.0,0.0,0.0
21553913,17052,0,1.00390625,-0.021484375,0.013671875,-0.0078125,0.0,0.0,0.0
21555164,17053,0,1.0,-0.0234375,0.015625,-0.0078125,0.0,0.0,0.0
21556415,17054,0,1.00390625,-0.025390625,0.017578125,-0.0078125,0.0,0.0,0.0
21557666,17055,0,1.00390625,-0.0234375,0.017578125,-0.005859375,0.0,0.0,0.0
21558916,17056,0,0.998046875,-0.025390625,0.013671875,-0.01171875,0.0,0.0,0.0
21560167,17057,0,1.00390625,-0.0234375,0.015625,-0.0078125,0.0,0.0,0.0
21561417,17058,0,0.998046875,-0.021484375,0.01953125,-0.001953125,0.0,0.0,0.0
21562668,17059,0,1.0,-0.0234375,0.015625,-0.0078125,0.0,0.0,0.0
21563920,17060,0,1.0,-0.02734375,0.017578125,-0.009765625,0.0,0.0,0.0
21565171,17061,0,1.0,-0.029296875,0.0078125,-0.021484375,0.0,0.0,0.0
21566421,17062,0,1.005859375,-0.025390625,0.01171875,-0.013671875,0.0,0.0,0.0
21567672,17063,0,1.005859375,-0.025390625,0.015625,-0.009765625,0.0,0.0,0.0
21568924,17064,0,1.00390625,-0.02734375,0.015625,-0.01171875,0.0,0.0,0.0
21570174,17065,0,0.99609375,-0.025390625,0.017578125,-0.0078125,0.0,0.0,0.0
21571425,17066,0,1.001953125,-0.03125,0.009765625,-0.021484375,0.0,0.0,0.0
21572677,17067,0,1.009765625,-0.025390625,0.01171875,-0.013671875,0.0,0.0,0.0
21573927,17068,0,1.005859375,-0.025390625,0.01171875,-0.013671875,0.0,0.0,0.0
21575177,17069,0,1.0,-0.0234375,0.025390625,0.001953125,0.0,0.0,0.0
21576429,17070,0,1.001953125,-0.029296875,0.005859375,-0.0234375,0.0,0.0,0.0
21577679,17071,0,1.0,-0.0234375,0.013671875,-0.009765625,0.0,0.0,0.0
21578931,17072,0,1.0,-0.025390625,0.017578125,-0.0078125,0.0,0.0,0.0
21580181,17073,0,1.005859375,-0.02734375,0.01171875,-0.015625,0.0,0.0,0.0
21581431,17074,0,1.0,-0.025390625,0.01953125,-0.005859375,0.0,0.0,0.0
21582683,17075,0,1.001953125,-0.021484375,0.0234375,0.001953125,0.0,0.0,0.0
21583933,17076,0,1.009765625,-0.029296875,0.01953125,-0.009765625,0.0,0.0,0.0
21585183,17077,0,1.00390625,-0.025390625,0.01953125,-0.005859375,0.0,0.0,0.0
21586434,17078,0,1.0,-0.025390625,0.0078125,-0.017578125,0.0,0.0,0.0
21587685,17079,0,1.0,-0.01953125,0.015625,-0.00390625,0.0,0.0,0.0
21588936,17080,0,1.00390625,-0.025390625,0.017578125,-0.0078125,0.0,0.0,0.0
21590186,17081,0,1.0,-0.0234375,0.01171875,-0.01171875,0.0,0.0,0.0
21591437,17082,0,1.001953125,-0.029296875,0.009765625,-0.01953125,0.0,0.0,0.0
21592687,17083,0,1.00390625,-0.02734375,0.01171875,-0.015625,0.0,0.0,0.0
21593937,17084,0,1.009765625,-0.029296875,0.005859375,-0.0234375,0.0,0.0,0.0
21595188,17085,0,1.0,-0.029296875,0.025390625,-0.00390625,0.0,0.0,0.0
21596440,17086,0,1.005859375,-0.02734375,0.015625,-0.01171875,0.0,0.0,0.0
21597690,17087,0,1.001953125,-0.025390625,0.01171875,-0.013671875,0.0,0.0,0.0
21598942,17088,0,1.005859375,-0.029296875,0.00390625,-0.025390625,0.0,0.0,0.0
21600193,17089,0,1.0,-0.025390625,0.017578125,-0.0078125,0.0,0.0,0.0
21601445,17090,0,1.0078125,-0.021484375,0.017578125,-0.00390625,0.0,0.0,0.0
21602695,17091,0,1.005859375,-0.021484375,0.01953125,-0.001953125,0.0,0.0,0.0
21603947,17092,0,1.001953125,-0.025390625,0.015625,-0.009765625,0.0,0.0,0.0
21605198,17093,0,1.00390625,-0.0234375,0.01953125,-0.00390625,0.0,0.0,0.0
21606450,17094,0,1.005859375,-0.02734375,0.013671875,-0.013671875,0.0,0.0,0.0
21607700,17095,0,1.005859375,-0.021484375,0.015625,-0.005859375,0.0,0.0,0.0
21608952,17096,0,1.00390625,-0.025390625,0.017578125,-0.0078125,0.0,0.0,0.0
21610203,17097,0,1.001953125,-0.0234375,0.009765625,-0.013671875,0.0,0.0,0.0
21611454,17098,0,1.005859375,-0.025390625,0.017578125,-0.0078125,0.0,0.0,0.0
21612705,17099,0,1.005859375,-0.025390625,0.015625,-0.009765625,0.0,0.0,0.0
