t_us,frame_id,sensor_id,accX,accY,accZ,acc_sum_YZ,magX,magY,magZ
50918687,40527,0,1.00390625,-0.033203125,0.025390625,-0.0078125,0.0,0.0,0.0
50919937,40528,0,1.001953125,-0.03125,0.021484375,-0.009765625,0.0,0.0,0.0
50921188,40529,0,1.015625,-0.029296875,0.013671875,-0.015625,0.0,0.0,0.0
50922440,40530,0,1.001953125,-0.025390625,0.021484375,-0.00390625,0.0,0.0,0.0
50923690,40531,0,1.001953125,-0.03125,0.017578125,-0.013671875,0.0,0.0,0.0
50924942,40532,0,1.00390625,-0.03125,0.01953125,-0.01171875,0.0,0.0,0.0
50926193,40533,0,1.001953125,-0.033203125,0.017578125,-0.015625,0.0,0.0,-1.1368683772161603e-13
50928695,40535,0,1.00390625,-0.029296875,0.01953125,-0.009765625,0.0,0.0,0.0
50929947,40536,0,1.005859375,-0.025390625,0.017578125,-0.0078125,0.0,0.0,0.0
50931198,40537,0,1.0,-0.03125,0.017578125,-0.013671875,0.0,0.0,0.0
50932450,40538,0,1.00390625,-0.03125,0.017578125,-0.013671875,0.0,0.0,0.0
50933700,40539,0,1.001953125,-0.03125,0.013671875,-0.017578125,0.0,0.0,0.0
50934952,40540,0,1.005859375,-0.029296875,0.01953125,-0.009765625,0.0,0.0,0.0
50936203,40541,0,1.00390625,-0.033203125,0.017578125,-0.015625,0.0,0.0,0.0
50937454,40542,0,1.005859375,-0.029296875,0.01953125,-0.009765625,0.0,0.0,0.0
50938705,40543,0,1.001953125,-0.029296875,0.017578125,-0.01171875,0.0,0.0,0.0
50939957,40544,0,1.00390625,-0.03125,0.013671875,-0.017578125,0.0,0.0,0.0
50941207,40545,0,1.0078125,-0.029296875,0.017578125,-0.01171875,0.0,0.0,0.0
50942459,40546,0,0.99609375,-0.029296875,0.025390625,-0.00390625,0.0,0.0,0.0
50943709,40547,0,1.0078125,-0.02734375,0.015625,-0.01171875,0.0,0.0,0.0
50944959,40548,0,1.01171875,-0.033203125,0.013671875,-0.01953125,0.0,0.0,0.0
50946209,40549,0,1.00390625,-0.03515625,0.01171875,-0.0234375,0.0,0.0,0.0
50947459,40550,0,1.0,-0.03125,0.015625,-0.015625,0.0,0.0,0.0
50948711,40551,0,1.00390625,-0.03125,0.015625,-0.015625,0.0,0.0,0.0
50949961,40552,0,1.005859375,-0.03125,0.021484375,-0.009765625,0.0,0.0,0.0
50951213,40553,0,1.0,-0.03125,0.0234375,-0.0078125,0.0,0.0,0.0
50952464,40554,0,1.00390625,-0.029296875,0.015625,-0.013671875,0.0,0.0,0.0
50953715,40555,0,1.0,-0.033203125,0.017578125,-0.015625,0.0,0.0,0.0
50954966,40556,0,1.001953125,-0.029296875,0.017578125,-0.01171875,0.0,0.0,0.0
50956216,40557,0,1.005859375,-0.03515625,0.017578125,-0.017578125,0.0,0.0,0.0
50957467,40558,0,0.998046875,-0.037109375,0.013671875,-0.0234375,0.0,0.0,0.0
50958718,40559,0,1.0078125,-0.033203125,0.01953125,-0.013671875,0.0,0.0,0.0
50959968,40560,0,1.001953125,-0.025390625,0.015625,-0.009765625,0.0,0.0,0.0
50961219,40561,0,0.99609375,-0.029296875,0.013671875,-0.015625,0.0,0.0,0.0
50962470,40562,0,1.00390625,-0.03125,0.01953125,-0.01171875,0.0,0.0,0.0
50963721,40563,0,1.0,-0.03125,0.01953125,-0.01171875,0.0,0.0,0.0
50964971,40564,0,1.00390625,-0.03125,0.017578125,-0.013671875,0.0,0.0,0.0
50966223,40565,0,1.005859375,-0.025390625,0.015625,-0.009765625,0.0,0.0,0.0
50967473,40566,0,1.005859375,-0.025390625,0.021484375,-0.00390625,0.0,0.0,0.0
50968723,40567,0,1.00390625,-0.021484375,0.015625,-0.005859375,0.0,0.0,0.0
50969975,40568,0,1.01171875,-0.03515625,0.009765625,-0.025390625,0.0,0.0,0.0
50971226,40569,0,1.01171875,-0.029296875,0.01171875,-0.017578125,0.0,0.0,0.0
50972476,40570,0,1.005859375,-0.033203125,0.015625,-0.017578125,0.0,0.0,0.0
50973728,40571,0,1.005859375,-0.02734375,0.021484375,-0.005859375,0.0,0.0,0.0
50974979,40572,0,1.005859375,-0.03125,0.017578125,-0.013671875,0.0,0.0,0.0
50976229,40573,0,1.009765625,-0.02734375,0.0234375,-0.00390625,0.0,0.0,0.0
50977481,40574,0,0.994140625,-0.03125,0.01171875,-0.01953125,0.0,0.0,0.0
50978731,40575,0,1.001953125,-0.029296875,0.017578125,-0.01171875,0.0,0.0,0.0
50979981,40576,0,1.0,-0.03125,0.01171875,-0.01953125,0.0,0.0,0.0
50981232,40577,0,1.009765625,-0.029296875,0.01953125,-0.009765625,0.0,0.0,0.0
50982483,40578,0,0.998046875,-0.03125,0.013671875,-0.017578125,0.0,0.0,0.0
50983734,40579,0,0.998046875,-0.029296875,0.015625,-0.013671875,0.0,0.0,0.0
50984986,40580,0,0.998046875,-0.03125,0.021484375,-0.009765625,0.0,0.0,0.0
50986236,40581,0,1.001953125,-0.033203125,0.017578125,-0.015625,0.0,0.0,0.0
50987486,40582,0,1.00390625,-0.033203125,0.017578125,-0.015625,0.0,0.0,0.0
50988737,40583,0,0.998046875,-0.03125,0.013671875,-0.017578125,0.0,0.0,0.0
50989987,40584,0,1.0,-0.03125,0.021484375,-0.009765625,0.0,0.0,0.0
50991238,40585,0,1.00390625,-0.029296875,0.017578125,-0.01171875,0.0,0.0,0.0
50992489,40586,0,1.0078125,-0.033203125,0.021484375,-0.01171875,0.0,0.0,0.0
50993740,40587,0,0.99609375,-0.02734375,0.017578125,-0.009765625,0.0,0.0,0.0
50994991,40588,0,1.0,-0.02734375,0.01953125,-0.0078125,0.0,0.0,0.0
50996241,40589,0,1.0078125,-0.03125,0.01953125,-0.01171875,0.0,0.0,0.0
50997492,40590,0,1.0078125,-0.037109375,0.013671875,-0.0234375,0.0,0.0,0.0
50998744,40591,0,1.0,-0.029296875,0.017578125,-0.01171875,0.0,0.0,0.0
50999994,40592,0,1.005859375,-0.029296875,0.01953125,-0.009765625,0.0,0.0,0.0
51001245,40593,0,0.998046875,-0.033203125,0.017578125,-0.015625,0.0,0.0,0.0
51002496,40594,0,0.99609375,-0.029296875,0.017578125,-0.01171875,0.0,0.0,0.0
51003747,40595,0,1.001953125,-0.029296875,0.01953125,-0.009765625,0.0,0.0,0.0
51004998,40596,0,1.00390625,-0.02734375,0.01953125,-0.0078125,0.0,0.0,0.0
51006249,40597,0,1.001953125,-0.033203125,0.025390625,-0.0078125,0.0,0.0,0.0
51007499,40598,0,0.994140625,-0.025390625,0.01953125,-0.005859375,0.0,0.0,0.0
51008751,40599,0,1.00390625,-0.02734375,0.021484375,-0.005859375,0.0,0.0,0.0
51010002,40600,0,1.00390625,-0.029296875,0.021484375,-0.0078125,0.0,0.0,0.0
51011253,40601,0,1.0,-0.029296875,0.015625,-0.013671875,0.0,0.0,0.0
51012503,40602,0,0.99609375,-0.03125,0.021484375,-0.009765625,0.0,0.0,0.0
51013755,40603,0,0.99609375,-0.025390625,0.013671875,-0.01171875,0.0,0.0,0.0
51015005,40604,0,1.0,-0.03515625,0.015625,-0.01953125,0.0,0.0,0.0
51016256,40605,0,1.0078125,-0.03125,0.021484375,-0.009765625,0.0,0.0,0.0
51017506,40606,0,1.0078125,-0.03125,0.015625,-0.015625,0.0,0.0,0.0
51018757,40607,0,1.0078125,-0.033203125,0.017578125,-0.015625,0.0,0.0,0.0
51020008,40608,0,1.0078125,-0.033203125,0.01953125,-0.013671875,0.0,0.0,0.0
51021258,40609,0,1.001953125,-0.0234375,0.01953125,-0.00390625,0.0,0.0,0.0
51022508,40610,0,1.013671875,-0.03125,0.01171875,-0.01953125,0.0,0.0,0.0
51023759,40611,0,1.01171875,-0.033203125,0.01953125,-0.013671875,0.0,0.0,0.0
51025009,40612,0,1.0,-0.033203125,0.013671875,-0.01953125,0.0,0.0,0.0
51026259,40613,0,1.00390625,-0.03125,0.013671875,-0.017578125,0.0,0.0,0.0
51027510,40614,0,1.01171875,-0.029296875,0.01171875,-0.017578125,0.0,0.0,0.0
51028762,40615,0,1.0078125,-0.025390625,0.013671875,-0.01171875,0.0,0.0,0.0
51030012,40616,0,1.005859375,-0.029296875,0.01171875,-0.017578125,0.0,0.0,0.0
51031271,40617,0,1.01171875,-0.029296875,0.017578125,-0.01171875,0.0,0.0,0.0
51032521,40618,0,1.0078125,-0.029296875,0.01953125,-0.009765625,0.0,0.0,0.0
51033773,40619,0,1.005859375,-0.02734375,0.015625,-0.01171875,0.0,0.0,0.0
51035023,40620,0,1.0,-0.029296875,0.013671875,-0.015625,0.0,0.0,0.0
51036274,40621,0,0.998046875,-0.029296875,0.015625,-0.013671875,0.0,0.0,0.0
51037525,40622,0,1.005859375,-0.033203125,0.013671875,-0.01953125,0.0,0.0,0.0
51038776,40623,0,1.00390625,-0.029296875,0.017578125,-0.01171875,0.0,0.0,0.0
51040026,40624,0,1.0,-0.03125,0.0234375,-0.0078125,0.0,0.0,0.0
51041276,40625,0,1.00390625,-0.03515625,0.01953125,-0.015625,0.0,0.0,0.0
51042527,40626,0,1.0078125,-0.025390625,0.021484375,-0.00390625,0.0,0.0,0.0
51043778,40627,0,1.001953125,-0.03515625,0.01171875,-0.0234375,0.0,0.0,0.0
51045029,40628,0,1.005859375,-0.03125,0.015625,-0.015625,0.0,0.0,0.0
51046280,40629,0,1.0,-0.03125,0.017578125,-0.013671875,0.0,0.0,0.0
51047531,40630,0,1.0,-0.025390625,0.01953125,-0.005859375,0.0,0.0,0.0
51048783,40631,0,1.001953125,-0.03125,0.01171875,-0.01953125,0.0,0.0,0.0
51050034,40632,0,1.001953125,-0.029296875,0.021484375,-0.0078125,0.0,0.0,0.0
51051286,40633,0,1.0078125,-0.033203125,0.025390625,-0.0078125,0.0,0.0,0.0
51052537,40634,0,1.001953125,-0.033203125,0.0234375,-0.009765625,0.0,0.0,0.0
51053789,40635,0,1.00390625,-0.029296875,0.021484375,-0.0078125,0.0,0.0,0.0
51055039,40636,0,1.00390625,-0.0234375,0.021484375,-0.001953125,0.0,0.0,0.0
51056289,40637,0,1.009765625,-0.02734375,0.01953125,-0.0078125,0.0,0.0,0.0
51057541,40638,0,0.998046875,-0.02734375,0.01953125,-0.0078125,0.0,0.0,0.0
51058792,40639,0,1.001953125,-0.03125,0.021484375,-0.009765625,0.0,0.0,0.0
51060044,40640,0,1.00390625,-0.02734375,0.017578125,-0.009765625,0.0,0.0,0.0
51061294,40641,0,1.009765625,-0.029296875,0.01953125,-0.009765625,0.0,0.0,0.0
51062544,40642,0,1.009765625,-0.03125,0.017578125,-0.013671875,0.0,0.0,0.0
51063795,40643,0,1.0078125,-0.033203125,0.021484375,-0.01171875,0.0,0.0,0.0
51065045,40644,0,1.001953125,-0.029296875,0.013671875,-0.015625,0.0,0.0,0.0
51066295,40645,0,1.001953125,-0.03125,0.017578125,-0.013671875,0.0,0.0,0.0
51067546,40646,0,0.998046875,-0.03125,0.017578125,-0.013671875,0.0,0.0,0.0
51068797,40647,0,1.001953125,-0.03125,0.013671875,-0.017578125,0.0,0.0,0.0
51070048,40648,0,1.001953125,-0.033203125,0.01953125,-0.013671875,0.0,0.0,0.0
51071299,40649,0,0.998046875,-0.03125,0.017578125,-0.013671875,0.0,0.0,0.0
51072550,40650,0,1.001953125,-0.02734375,0.017578125,-0.009765625,0.0,0.0,0.0
51073800,40651,0,1.0,-0.033203125,0.0234375,-0.009765625,0.0,0.0,0.0
51075052,40652,0,1.0078125,-0.029296875,0.013671875,-0.015625,0.0,0.0,0.0
51076303,40653,0,1.0,-0.03515625,0.015625,-0.01953125,0.0,0.0,0.0
51077554,40654,0,1.001953125,-0.033203125,0.029296875,-0.00390625,0.0,0.0,0.0
51078805,40655,0,1.001953125,-0.033203125,0.009765625,-0.0234375,0.0,0.0,0.0
51080057,40656,0,1.0,-0.033203125,0.01953125,-0.013671875,0.0,0.0,0.0
51081308,40657,0,1.00390625,-0.03125,0.01953125,-0.01171875,0.0,0.0,0.0
51082560,40658,0,1.01171875,-0.0234375,0.021484375,-0.001953125,0.0,0.0,0.0
51083811,40659,0,1.0,-0.03125,0.017578125,-0.013671875,0.0,0.0,0.0
51085063,40660,0,1.009765625,-0.029296875,0.01953125,-0.009765625,0.0,0.0,0.0
51086314,40661,0,1.005859375,-0.029296875,0.013671875,-0.015625,0.0,0.0,0.0
51087565,40662,0,1.005859375,-0.033203125,0.013671875,-0.01953125,0.0,0.0,0.0
51088816,40663,0,1.00390625,-0.02734375,0.01953125,-0.0078125,0.0,0.0,0.0
51090066,40664,0,1.0,-0.03125,0.01953125,-0.01171875,0.0,0.0,0.0
51091318,40665,0,1.00390625,-0.029296875,0.015625,-0.013671875,0.0,0.0,0.0
51092569,40666,0,0.998046875,-0.03125,0.021484375,-0.009765625,0.0,0.0,0.0
51093819,40667,0,1.005859375,-0.033203125,0.021484375,-0.01171875,0.0,0.0,0.0
51095070,40668,0,0.998046875,-0.033203125,0.015625,-0.017578125,0.0,0.0,0.0
51096321,40669,0,1.009765625,-0.03125,0.017578125,-0.013671875,0.0,0.0,0.0
51097572,40670,0,1.00390625,-0.029296875,0.01171875,-0.017578125,0.0,0.0,0.0
51098823,40671,0,0.998046875,-0.029296875,0.021484375,-0.0078125,0.0,0.0,0.0
51100074,40672,0,1.001953125,-0.03125,0.021484375,-0.009765625,0.0,0.0,0.0
51101325,40673,0,1.005859375,-0.03125,0.017578125,-0.013671875,0.0,0.0,0.0
51102575,40674,0,1.0078125,-0.029296875,0.017578125,-0.01171875,0.0,0.0,0.0
51103825,40675,0,1.009765625,-0.029296875,0.009765625,-0.01953125,0.0,0.0,0.0
51105076,40676,0,1.005859375,-0.029296875,0.025390625,-0.00390625,0.0,0.0,0.0
51106326,40677,0,0.994140625,-0.029296875,0.01953125,-0.009765625,0.0,0.0,0.0
51107577,40678,0,1.015625,-0.02734375,0.013671875,-0.013671875,0.0,0.0,0.0
51108828,40679,0,1.001953125,-0.033203125,0.013671875,-0.01953125,0.0,0.0,0.0
51110078,40680,0,1.005859375,-0.033203125,0.017578125,-0.015625,0.0,0.0,0.0
51111329,40681,0,1.001953125,-0.029296875,0.015625,-0.013671875,0.0,0.0,0.0
51112581,40682,0,1.00390625,-0.02734375,0.017578125,-0.009765625,0.0,0.0,0.0
51113833,40683,0,1.00390625,-0.033203125,0.01953125,-0.013671875,0.0,0.0,0.0
51115083,40684,0,0.998046875,-0.02734375,0.015625,-0.01171875,0.0,0.0,0.0
51116333,40685,0,1.0,-0.02734375,0.01953125,-0.0078125,0.0,0.0,0.0
51117584,40686,0,1.00390625,-0.029296875,0.015625,-0.013671875,0.0,0.0,0.0
51118835,40687,0,1.0,-0.03515625,0.015625,-0.01953125,0.0,0.0,0.0
51120085,40688,0,1.001953125,-0.029296875,0.013671875,-0.015625,0.0,0.0,0.0
51121336,40689,0,1.001953125,-0.029296875,0.01171875,-0.017578125,0.0,0.0,0.0
51122587,40690,0,1.0078125,-0.029296875,0.015625,-0.013671875,0.0,0.0,0.0
51123838,40691,0,1.001953125,-0.02734375,0.01171875,-0.015625,0.0,0.0,0.0
51125090,40692,0,1.0078125,-0.029296875,0.021484375,-0.0078125,0.0,0.0,0.0
51126341,40693,0,1.001953125,-0.033203125,0.01953125,-0.013671875,0.0,0.0,0.0
51127592,40694,0,0.998046875,-0.025390625,0.015625,-0.009765625,0.0,0.0,0.0
51128844,40695,0,0.998046875,-0.025390625,0.017578125,-0.0078125,0.0,0.0,0.0
51130095,40696,0,1.005859375,-0.02734375,0.01953125,-0.0078125,0.0,0.0,0.0
51131346,40697,0,1.001953125,-0.029296875,0.013671875,-0.015625,0.0,0.0,0.0
51132597,40698,0,1.00390625,-0.029296875,0.017578125,-0.01171875,0.0,0.0,0.0
51133849,40699,0,1.005859375,-0.029296875,0.017578125,-0.01171875,0.0,0.0,0.0
51135099,40700,0,1.00390625,-0.03125,0.01171875,-0.01953125,0.0,0.0,0.0
51136351,40701,0,1.0,-0.029296875,0.013671875,-0.015625,0.0,0.0,0.0
51137602,40702,0,1.015625,-0.029296875,0.01953125,-0.009765625,0.0,0.0,0.0
51138854,40703,0,1.005859375,-0.02734375,0.013671875,-0.013671875,0.0,0.0,0.0
51140104,40704,0,1.0078125,-0.03515625,0.01953125,-0.015625,0.0,0.0,0.0
51141354,40705,0,1.00390625,-0.033203125,0.01953125,-0.013671875,0.0,0.0,0.0
51142605,40706,0,0.998046875,-0.03125,0.01953125,-0.01171875,0.0,0.0,0.0
51143855,40707,0,1.00390625,-0.029296875,0.01953125,-0.009765625,0.0,0.0,0.0
51145107,40708,0,1.00390625,-0.03125,0.01171875,-0.01953125,0.0,0.0,0.0
51146358,40709,0,1.0078125,-0.03125,0.017578125,-0.013671875,0.0,0.0,0.0
51147609,40710,0,1.0,-0.029296875,0.0234375,-0.005859375,0.0,0.0,0.0
51148859,40711,0,1.00390625,-0.029296875,0.015625,-0.013671875,0.0,0.0,0.0
51150111,40712,0,1.0,-0.037109375,0.01953125,-0.017578125,0.0,0.0,0.0
51151362,40713,0,1.0,-0.03125,0.01953125,-0.01171875,0.0,0.0,0.0
51152613,40714,0,1.00390625,-0.03125,0.01953125,-0.01171875,0.0,0.0,0.0
51153865,40715,0,1.005859375,-0.03125,0.021484375,-0.009765625,0.0,0.0,0.0
51155115,40716,0,0.9921875,-0.03125,0.015625,-0.015625,0.0,0.0,0.0
51156365,40717,0,1.01171875,-0.03125,0.017578125,-0.013671875,0.0,0.0,0.0
51157617,40718,0,1.00390625,-0.03125,0.017578125,-0.013671875,0.0,0.0,0.0
51158867,40719,0,0.998046875,-0.03125,0.01171875,-0.01953125,0.0,0.0,0.0
51160118,40720,0,1.001953125,-0.03125,0.01953125,-0.01171875,0.0,0.0,0.0
51161369,40721,0,1.005859375,-0.025390625,0.0078125,-0.017578125,0.0,0.0,0.0
51162620,40722,0,0.998046875,-0.021484375,0.017578125,-0.00390625,0.0,0.0,0.0
51163871,40723,0,1.0078125,-0.029296875,0.025390625,-0.00390625,0.0,0.0,0.0
51165123,40724,0,1.0078125,-0.03125,0.021484375,-0.009765625,0.0,0.0,0.0
51166374,40725,0,1.001953125,-0.033203125,0.021484375,-0.01171875,0.0,0.0,0.0
51167624,40726,0,1.001953125,-0.02734375,0.01953125,-0.0078125,0.0,0.0,0.0
51168875,40727,0,1.00390625,-0.033203125,0.015625,-0.017578125,0.0,0.0,0.0
51170125,40728,0,1.001953125,-0.03515625,0.015625,-0.01953125,0.0,0.0,0.0
51171375,40729,0,1.0,-0.033203125,0.01171875,-0.021484375,0.0,0.0,0.0
51172626,40730,0,1.0078125,-0.03515625,0.017578125,-0.017578125,0.0,0.0,0.0
51173877,40731,0,1.00390625,-0.029296875,0.021484375,-0.0078125,0.0,0.0,0.0
51175129,40732,0,1.0078125,-0.029296875,0.015625,-0.013671875,0.0,0.0,0.0
51176380,40733,0,0.998046875,-0.02734375,0.021484375,-0.005859375,0.0,0.0,0.0
51177630,40734,0,1.0078125,-0.029296875,0.015625,-0.013671875,0.0,0.0,0.0
51178881,40735,0,1.005859375,-0.02734375,0.013671875,-0.013671875,0.0,0.0,0.0
51180133,40736,0,1.0,-0.03515625,0.015625,-0.01953125,0.0,0.0,0.0
51181384,40737,0,1.0,-0.03515625,0.017578125,-0.017578125,0.0,0.0,0.0
51182634,40738,0,1.0,-0.033203125,0.0078125,-0.025390625,0.0,0.0,0.0
51183886,40739,0,1.001953125,-0.0390625,0.015625,-0.0234375,0.0,0.0,0.0
51185136,40740,0,1.001953125,-0.033203125,0.015625,-0.017578125,0.0,0.0,0.0
51186386,40741,0,1.009765625,-0.02734375,0.01953125,-0.0078125,0.0,0.0,0.0
51187638,40742,0,1.009765625,-0.037109375,0.013671875,-0.0234375,0.0,0.0,0.0
51188888,40743,0,1.0078125,-0.029296875,0.017578125,-0.01171875,0.0,0.0,0.0
51190139,40744,0,1.00390625,-0.02734375,0.017578125,-0.009765625,0.0,0.0,0.0
51191391,40745,0,0.998046875,-0.03125,0.017578125,-0.013671875,0.0,0.0,0.0
51192641,40746,0,1.005859375,-0.03515625,0.01953125,-0.015625,0.0,0.0,0.0
51193892,40747,0,1.005859375,-0.033203125,0.015625,-0.017578125,0.0,0.0,0.0
51195142,40748,0,1.005859375,-0.03125,0.01953125,-0.01171875,0.0,0.0,0.0
51196393,40749,0,1.005859375,-0.03125,0.01953125,-0.01171875,0.0,0.0,0.0
51197645,40750,0,1.0078125,-0.03125,0.015625,-0.015625,0.0,0.0,0.0
51198895,40751,0,1.00390625,-0.029296875,0.025390625,-0.00390625,0.0,0.0,0.0
51200147,40752,0,1.001953125,-0.033203125,0.021484375,-0.01171875,0.0,0.0,0.0
51201397,40753,0,1.005859375,-0.029296875,0.013671875,-0.015625,0.0,0.0,0.0
51202649,40754,0,1.005859375,-0.029296875,0.017578125,-0.01171875,0.0,0.0,0.0
51203899,40755,0,1.005859375,-0.03515625,0.01953125,-0.015625,0.0,0.0,0.0
51205149,40756,0,0.99609375,-0.03125,0.01953125,-0.01171875,0.0,0.0,0.0
51206399,40757,0,1.005859375,-0.03125,0.01953125,-0.01171875,0.0,0.0,0.0
51207650,40758,0,1.00390625,-0.037109375,0.013671875,-0.0234375,0.0,0.0,0.0
51208902,40759,0,1.009765625,-0.037109375,0.017578125,-0.01953125,0.0,0.0,0.0
51210153,40760,0,1.009765625,-0.03515625,0.017578125,-0.017578125,0.0,0.0,0.0
51211404,40761,0,1.001953125,-0.03125,0.015625,-0.015625,0.0,0.0,0.0
51212654,40762,0,1.005859375,-0.03125,0.013671875,-0.017578125,0.0,0.0,0.0
51213904,40763,0,1.005859375,-0.033203125,0.01953125,-0.013671875,0.0,0.0,0.0
51215155,40764,0,1.005859375,-0.02734375,0.021484375,-0.005859375,0.0,0.0,0.0
51216407,40765,0,1.009765625,-0.03125,0.009765625,-0.021484375,0.0,0.0,0.0
51217657,40766,0,0.99609375,-0.03125,0.021484375,-0.009765625,0.0,0.0,0.0
51218909,40767,0,1.005859375,-0.033203125,0.0234375,-0.009765625,0.0,0.0,0.0
51220159,40768,0,1.001953125,-0.03125,0.015625,-0.015625,0.0,0.0,0.0
51221409,40769,0,1.001953125,-0.03125,0.015625,-0.015625,0.0,0.0,0.0
51222661,40770,0,0.998046875,-0.037109375,0.015625,-0.021484375,0.0,0.0,0.0
51223911,40771,0,1.005859375,-0.029296875,0.015625,-0.013671875,0.0,0.0,0.0
51225161,40772,0,1.00390625,-0.033203125,0.021484375,-0.01171875,0.0,0.0,0.0
51226411,40773,0,1.001953125,-0.029296875,0.009765625,-0.01953125,0.0,0.0,0.0
51227663,40774,0,1.0,-0.02734375,0.021484375,-0.005859375,0.0,0.0,0.0
51228913,40775,0,1.00390625,-0.03125,0.015625,-0.015625,0.0,0.0,0.0
51230164,40776,0,1.00390625,-0.03125,0.013671875,-0.017578125,0.0,0.0,0.0
51231415,40777,0,1.00390625,-0.03125,0.0234375,-0.0078125,0.0,0.0,0.0
51232666,40778,0,1.001953125,-0.025390625,0.017578125,-0.0078125,0.0,0.0,0.0
51233916,40779,0,1.0,-0.029296875,0.0234375,-0.005859375,0.0,0.0,0.0
51235167,40780,0,1.0,-0.02734375,0.01171875,-0.015625,0.0,0.0,0.0
51236417,40781,0,1.01171875,-0.041015625,0.013671875,-0.02734375,0.0,0.0,0.0
51237668,40782,0,1.001953125,-0.025390625,0.021484375,-0.00390625,0.0,0.0,0.0
51238920,40783,0,1.005859375,-0.03125,0.0234375,-0.0078125,0.0,0.0,0.0
51240171,40784,0,1.01171875,-0.03125,0.0234375,-0.0078125,0.0,0.0,0.0
51241421,40785,0,0.998046875,-0.0234375,0.013671875,-0.009765625,0.0,0.0,0.0
51242672,40786,0,1.005859375,-0.033203125,0.01171875,-0.021484375,0.0,0.0,0.0
51243924,40787,0,1.009765625,-0.02734375,0.01171875,-0.015625,0.0,0.0,0.0
51245174,40788,0,1.00390625,-0.029296875,0.01953125,-0.009765625,0.0,0.0,0.0
51246425,40789,0,1.00390625,-0.02734375,0.015625,-0.01171875,0.0,0.0,0.0
51247677,40790,0,1.005859375,-0.03125,0.021484375,-0.009765625,0.0,0.0,0.0
51248927,40791,0,1.005859375,-0.03125,0.021484375,-0.009765625,0.0,0.0,0.0
51250177,40792,0,0.998046875,-0.02734375,0.01953125,-0.0078125,0.0,0.0,0.0
51251429,40793,0,1.001953125,-0.033203125,0.01953125,-0.013671875,0.0,0.0,0.0
51252679,40794,0,0.99609375,-0.03125,0.017578125,-0.013671875,0.0,0.0,0.0
51253931,40795,0,1.001953125,-0.03515625,0.01171875,-0.0234375,0.0,0.0,0.0
51255181,40796,0,1.00390625,-0.03515625,0.017578125,-0.017578125,0.0,0.0,0.0
51256431,40797,0,1.005859375,-0.03125,0.013671875,-0.017578125,0.0,0.0,0.0
51257683,40798,0,1.001953125,-0.03125,0.01171875,-0.01953125,0.0,0.0,0.0
51258933,40799,0,1.005859375,-0.033203125,0.013671875,-0.01953125,0.0,0.0,0.0
51260183,40800,0,1.0,-0.029296875,0.01953125,-0.009765625,0.0,0.0,0.0
51261434,40801,0,1.005859375,-0.0234375,0.01171875,-0.01171875,0.0,0.0,0.0
51262685,40802,0,0.998046875,-0.03125,0.0078125,-0.0234375,0.0,0.0,0.0
51263936,40803,0,1.0078125,-0.033203125,0.015625,-0.017578125,0.0,0.0,0.0
51265186,40804,0,1.0078125,-0.03125,0.015625,-0.015625,0.0,0.0,0.0
51266437,40805,0,1.001953125,-0.02734375,0.01953125,-0.0078125,0.0,0.0,0.0
51267687,40806,0,1.005859375,-0.033203125,0.025390625,-0.0078125,0.0,0.0,0.0
51268937,40807,0,1.00390625,-0.029296875,0.017578125,-0.01171875,0.0,0.0,0.0
51270188,40808,0,0.998046875,-0.02734375,0.017578125,-0.009765625,0.0,0.0,0.0
51271440,40809,0,0.9921875,-0.029296875,0.013671875,-0.015625,0.0,0.0,0.0
51272690,40810,0,1.005859375,-0.03515625,0.017578125,-0.017578125,0.0,0.0,0.0
51273942,40811,0,1.001953125,-0.03125,0.017578125,-0.013671875,0.0,0.0,0.0
51275193,40812,0,1.0,-0.03125,0.013671875,-0.017578125,0.0,0.0,0.0
51276445,40813,0,1.005859375,-0.03125,0.017578125,-0.013671875,0.0,0.0,0.0
51277695,40814,0,1.0,-0.029296875,0.0234375,-0.005859375,0.0,0.0,0.0
51278947,40815,0,1.0,-0.029296875,0.01953125,-0.009765625,0.0,0.0,0.0
51280198,40816,0,1.00390625,-0.02734375,0.017578125,-0.009765625,0.0,0.0,0.0
51281450,40817,0,1.005859375,-0.02734375,0.02734375,0.0,0.0,0.0,0.0
51282700,40818,0,1.001953125,-0.02734375,0.0234375,-0.00390625,0.0,0.0,0.0
51283952,40819,0,1.005859375,-0.02734375,0.017578125,-0.009765625,0.0,0.0,0.0
51285203,40820,0,1.0078125,-0.033203125,0.01953125,-0.013671875,0.0,0.0,0.0
51286454,40821,0,1.00390625,-0.02734375,0.025390625,-0.001953125,0.0,0.0,0.0
51287705,40822,0,1.001953125,-0.02734375,0.01953125,-0.0078125,0.0,0.0,0.0
51288957,40823,0,1.0,-0.03125,0.01171875,-0.01953125,0.0,0.0,0.0
51290207,40824,0,1.00390625,-0.03125,0.015625,-0.015625,0.0,0.0,0.0
51291459,40825,0,1.0078125,-0.029296875,0.025390625,-0.00390625,0.0,0.0,0.0
51292709,40826,0,1.0078125,-0.029296875,0.013671875,-0.015625,0.0,0.0,0.0
51293959,40827,0,1.005859375,-0.02734375,0.009765625,-0.017578125,0.0,0.0,0.0
51295209,40828,0,1.0078125,-0.0390625,0.013671875,-0.025390625,0.0,0.0,0.0
51296459,40829,0,1.0,-0.029296875,0.01953125,-0.009765625,0.0,0.0,0.0
51297711,40830,0,1.0078125,-0.033203125,0.015625,-0.017578125,0.0,0.0,0.0
51298961,40831,0,1.0,-0.029296875,0.017578125,-0.01171875,0.0,0.0,0.0
51300213,40832,0,1.00390625,-0.029296875,0.015625,-0.013671875,0.0,0.0,0.0
51301464,40833,0,1.00390625,-0.03125,0.01171875,-0.01953125,0.0,0.0,0.0
51302715,40834,0,1.0,-0.029296875,0.013671875,-0.015625,0.0,0.0,0.0
51303966,40835,0,1.001953125,-0.029296875,0.017578125,-0.01171875,0.0,0.0,0.0
51305216,40836,0,1.001953125,-0.029296875,0.01171875,-0.017578125,0.0,0.0,0.0
51306467,40837,0,1.001953125,-0.029296875,0.017578125,-0.01171875,0.0,0.0,0.0
51307718,40838,0,1.005859375,-0.03125,0.017578125,-0.013671875,0.0,0.0,0.0
51308968,40839,0,1.0078125,-0.029296875,0.013671875,-0.015625,0.0,0.0,0.0
51310219,40840,0,1.0,-0.029296875,0.0234375,-0.005859375,0.0,0.0,0.0
51311470,40841,0,1.005859375,-0.025390625,0.015625,-0.009765625,0.0,0.0,0.0
51312721,40842,0,1.00390625,-0.03125,0.01953125,-0.01171875,0.0,0.0,0.0
51313971,40843,0,1.00390625,-0.029296875,0.013671875,-0.015625,0.0,0.0,0.0
51315223,40844,0,1.0078125,-0.03125,0.017578125,-0.013671875,0.0,0.0,0.0
51316473,40845,0,1.015625,-0.03125,0.017578125,-0.013671875,0.0,0.0,0.0
51317723,40846,0,1.001953125,-0.03515625,0.013671875,-0.021484375,0.0,0.0,0.0
51318975,40847,0,1.001953125,-0.033203125,0.015625,-0.017578125,0.0,0.0,0.0
51320226,40848,0,1.009765625,-0.041015625,0.009765625,-0.03125,0.0,0.0,0.0
51321476,40849,0,1.001953125,-0.029296875,0.009765625,-0.01953125,0.0,0.0,0.0
51322728,40850,0,1.0,-0.033203125,0.015625,-0.017578125,0.0,0.0,0.0
51323979,40851,0,1.005859375,-0.03125,0.01953125,-0.01171875,0.0,0.0,0.0
51325229,40852,0,1.0078125,-0.03125,0.0234375,-0.0078125,0.0,0.0,0.0
51326481,40853,0,1.00390625,-0.029296875,0.017578125,-0.01171875,0.0,0.0,0.0
51327731,40854,0,1.005859375,-0.033203125,0.013671875,-0.01953125,0.0,0.0,0.0
51328981,40855,0,1.0078125,-0.029296875,0.017578125,-0.01171875,0.0,0.0,0.0
51330232,40856,0,1.00390625,-0.02734375,0.021484375,-0.005859375,0.0,0.0,0.0
51331483,40857,0,0.998046875,-0.033203125,0.017578125,-0.015625,0.0,0.0,0.0
51332734,40858,0,1.001953125,-0.033203125,0.01953125,-0.013671875,0.0,0.0,0.0
51333986,40859,0,1.0,-0.033203125,0.017578125,-0.015625,0.0,0.0,0.0
51335236,40860,0,1.005859375,-0.029296875,0.01171875,-0.017578125,0.0,0.0,0.0
51336486,40861,0,1.005859375,-0.03125,0.01953125,-0.01171875,0.0,0.0,0.0
51337737,40862,0,1.001953125,-0.03515625,0.021484375,-0.013671875,0.0,0.0,0.0
51338987,40863,0,1.005859375,-0.03515625,0.013671875,-0.021484375,0.0,0.0,0.0
51340238,40864,0,0.998046875,-0.03515625,0.017578125,-0.017578125,0.0,0.0,0.0
51341489,40865,0,1.0,-0.033203125,0.009765625,-0.0234375,0.0,0.0,0.0
51342740,40866,0,1.0,-0.03515625,0.017578125,-0.017578125,0.0,0.0,0.0
51343991,40867,0,0.99609375,-0.02734375,0.01953125,-0.0078125,0.0,0.0,0.0
51345241,40868,0,0.99609375,-0.03515625,0.01953125,-0.015625,0.0,0.0,0.0
51346492,40869,0,1.005859375,-0.03125,0.01171875,-0.01953125,0.0,0.0,0.0
51347744,40870,0,1.00390625,-0.02734375,0.013671875,-0.013671875,0.0,0.0,0.0
51348994,40871,0,1.005859375,-0.03125,0.01953125,-0.01171875,0.0,0.0,0.0
51350245,40872,0,1.001953125,-0.02734375,0.01953125,-0.0078125,0.0,0.0,0.0
51351496,40873,0,1.00390625,-0.03515625,0.01953125,-0.015625,0.0,0.0,0.0
51352747,40874,0,1.00390625,-0.03515625,0.017578125,-0.017578125,0.0,0.0,0.0
51353998,40875,0,1.001953125,-0.03515625,0.01953125,-0.015625,0.0,0.0,0.0
51355249,40876,0,1.00390625,-0.02734375,0.01953125,-0.0078125,0.0,0.0,0.0
51356499,40877,0,1.0,-0.033203125,0.017578125,-0.015625,0.0,0.0,0.0
51357751,40878,0,1.00390625,-0.029296875,0.017578125,-0.01171875,0.0,0.0,0.0
51359002,40879,0,1.00390625,-0.033203125,0.017578125,-0.015625,0.0,0.0,0.0
51360253,40880,0,1.0078125,-0.033203125,0.01953125,-0.013671875,0.0,0.0,0.0
51361503,40881,0,0.998046875,-0.03515625,0.021484375,-0.013671875,0.0,0.0,0.0
51362755,40882,0,1.001953125,-0.03125,0.017578125,-0.013671875,0.0,0.0,0.0
51364005,40883,0,1.0,-0.03125,0.017578125,-0.013671875,0.0,0.0,0.0
51365256,40884,0,1.005859375,-0.029296875,0.017578125,-0.01171875,0.0,0.0,0.0
51366506,40885,0,1.005859375,-0.04296875,0.013671875,-0.029296875,0.0,0.0,0.0
51367757,40886,0,1.001953125,-0.05078125,0.005859375,-0.044921875,0.0,0.0,0.0
51369008,40887,0,0.974609375,-0.208984375,-0.09375,-0.302734375,0.0,0.0,0.0
51370258,40888,0,0.498046875,-3.27734375,-1.294921875,-4.572265625,0.0,0.0,0.0
51371508,40889,0,0.515625,-0.078125,-0.45703125,-0.53515625,0.0,0.0,0.0
51372759,40890,0,1.630859375,1.890625,1.1640625,3.0546875,0.0,0.0,0.0
51374009,40891,0,1.125,0.794921875,0.7578125,1.552734375,0.0,0.0,0.0
51375259,40892,0,1.12890625,-0.576171875,-0.17578125,-0.751953125,0.0,0.0,0.0
51376510,40893,0,0.71875,-0.3671875,-0.080078125,-0.447265625,0.0,0.0,0.0
51377762,40894,0,1.138671875,0.158203125,0.1328125,0.291015625,0.0,0.0,0.0
51379012,40895,0,1.0,-0.041015625,0.029296875,-0.01171875,0.0,0.0,0.0
51380271,40896,0,0.97265625,-0.181640625,-0.04296875,-0.224609375,0.0,0.0,0.0
51381521,40897,0,1.06640625,-0.056640625,-0.060546875,-0.1171875,0.0,0.0,0.0
51382773,40898,0,0.982421875,-0.0625,0.03515625,-0.02734375,0.0,0.0,0.0
51384023,40899,0,0.96484375,-0.044921875,0.041015625,-0.00390625,0.0,0.0,0.0
51385274,40900,0,1.07421875,0.00390625,-0.00390625,0.0,0.0,0.0,0.0
51386525,40901,0,0.96875,-0.005859375,0.025390625,0.01953125,0.0,0.0,0.0
51387776,40902,0,0.98828125,-0.0859375,0.01953125,-0.06640625,0.0,0.0,0.0
51389026,40903,0,1.025390625,-0.076171875,-0.00390625,-0.080078125,0.0,0.0,0.0
51390276,40904,0,0.9921875,-0.125,-0.021484375,-0.146484375,0.0,0.0,0.0
51391527,40905,0,0.927734375,-0.0234375,0.044921875,0.021484375,0.0,0.0,0.0
51392778,40906,0,1.0234375,-0.0390625,-0.044921875,-0.083984375,0.0,0.0,0.0
51394029,40907,0,1.037109375,-0.01953125,0.0234375,0.00390625,0.0,0.0,0.0
51395280,40908,0,0.9921875,-0.037109375,0.046875,0.009765625,0.0,0.0,0.0
51396531,40909,0,1.025390625,-0.01953125,0.021484375,0.001953125,0.0,0.0,0.0
51397783,40910,0,1.04296875,0.029296875,0.009765625,0.0390625,0.0,0.0,0.0
51399034,40911,0,0.9609375,-0.052734375,0.025390625,-0.02734375,0.0,0.0,0.0
51400286,40912,0,0.9765625,-0.08984375,-0.025390625,-0.115234375,0.0,0.0,0.0
51401537,40913,0,1.03515625,-0.052734375,-0.029296875,-0.08203125,0.0,0.0,0.0
51402789,40914,0,0.982421875,-0.017578125,0.033203125,0.015625,0.0,0.0,0.0
51404039,40915,0,1.01953125,0.013671875,0.037109375,0.05078125,0.0,0.0,0.0
51405289,40916,0,1.052734375,-0.005859375,0.033203125,0.02734375,0.0,0.0,0.0
51406541,40917,0,0.994140625,-0.109375,0.001953125,-0.107421875,0.0,0.0,0.0
51407792,40918,0,0.951171875,-0.1015625,0.009765625,-0.091796875,0.0,0.0,0.0
51409044,40919,0,1.02734375,-0.150390625,-0.044921875,-0.1953125,0.0,0.0,0.0
51410294,40920,0,0.96875,-0.154296875,-0.052734375,-0.20703125,0.0,0.0,0.0
51411544,40921,0,0.986328125,-0.060546875,-0.001953125,-0.0625,0.0,0.0,0.0
51412795,40922,0,1.025390625,0.044921875,0.046875,0.091796875,0.0,0.0,0.0
51414045,40923,0,1.05078125,0.126953125,0.06640625,0.193359375,0.0,0.0,0.0
51415295,40924,0,0.978515625,0.01171875,0.05078125,0.0625,0.0,0.0,0.0
51416546,40925,0,1.00390625,-0.029296875,0.0234375,-0.005859375,0.0,0.0,0.0
51417797,40926,0,0.9921875,-0.140625,-0.048828125,-0.189453125,0.0,0.0,0.0
51419048,40927,0,0.990234375,-0.2265625,-0.0546875,-0.28125,0.0,0.0,0.0
51420299,40928,0,1.041015625,-0.32421875,-0.013671875,-0.337890625,0.0,0.0,0.0
51421550,40929,0,1.041015625,-0.619140625,-0.2265625,-0.845703125,0.0,0.0,0.0
51422800,40930,0,0.97265625,-1.001953125,-0.333984375,-1.3359375,0.0,0.0,0.0
51424052,40931,0,0.99609375,-1.736328125,-0.595703125,-2.33203125,0.0,0.0,0.0
51425303,40932,0,1.0,-2.56640625,-1.099609375,-3.666015625,0.0,0.0,0.0
51426554,40933,0,1.044921875,-1.921875,-0.818359375,-2.740234375,0.0,0.0,0.0
51427805,40934,0,0.9140625,-0.765625,-0.435546875,-1.201171875,0.0,0.0,0.0
51429057,40935,0,0.9921875,-0.79296875,-1.453125,-2.24609375,0.0,0.0,0.0
51430308,40936,0,1.21875,-4.0,-0.107421875,-4.107421875,0.0,0.0,0.0
51431560,40937,0,2.30078125,-4.0,-4.0,-8.0,0.0,0.0,0.0
51432811,40938,0,-0.626953125,-1.8828125,-3.9296875,-5.8125,0.0,0.0,0.0
51434063,40939,0,1.56640625,3.998046875,-1.28515625,2.712890625,0.0,0.0,0.0
51435314,40940,0,0.779296875,3.998046875,1.224609375,5.22265625,0.0,0.0,0.0
51436565,40941,0,2.197265625,3.998046875,2.98046875,6.978515625,0.0,0.0,0.0
51437816,40942,0,1.193359375,3.998046875,3.998046875,7.99609375,0.0,0.0,0.0
51439066,40943,0,0.6171875,3.998046875,3.998046875,7.99609375,0.0,0.0,0.0
51440318,40944,0,1.57421875,3.998046875,3.568359375,7.56640625,0.0,0.0,0.0
51441569,40945,0,0.958984375,3.998046875,2.083984375,6.08203125,0.0,0.0,0.0
51442819,40946,0,0.787109375,1.75390625,0.431640625,2.185546875,0.0,0.0,0.0
51444070,40947,0,1.271484375,-1.9453125,-1.04296875,-2.98828125,0.0,0.0,0.0
51445321,40948,0,1.359375,-4.0,-2.087890625,-6.087890625,0.0,0.0,0.0
51446572,40949,0,0.548828125,-4.0,-2.30859375,-6.30859375,0.0,0.0,0.0
51447823,40950,0,0.77734375,-4.0,-2.40625,-6.40625,0.0,0.0,0.0
51449074,40951,0,0.84765625,-4.0,-2.26953125,-6.26953125,0.0,0.0,0.0
51450325,40952,0,0.37109375,-4.0,-1.5390625,-5.5390625,0.0,0.0,0.0
51451575,40953,0,0.962890625,-1.8125,-0.908203125,-2.720703125,0.0,0.0,0.0
51452825,40954,0,1.373046875,0.361328125,-0.23828125,0.123046875,0.0,0.0,0.0
51454076,40955,0,1.140625,2.29296875,0.5078125,2.80078125,0.0,0.0,0.0
51455326,40956,0,1.16796875,3.5078125,1.2265625,4.734375,0.0,0.0,0.0
51456577,40957,0,1.30078125,3.912109375,1.365234375,5.27734375,0.0,0.0,0.0
51457828,40958,0,1.05078125,3.640625,1.5078125,5.1484375,0.0,0.0,0.0
51459078,40959,0,0.689453125,2.80078125,1.341796875,4.142578125,0.0,0.0,0.0
51460329,40960,0,1.09375,1.58984375,0.650390625,2.240234375,0.0,0.0,0.0
51461581,40961,0,1.158203125,0.2734375,0.080078125,0.353515625,0.0,0.0,0.0
51462833,40962,0,0.93359375,-0.91796875,-0.302734375,-1.220703125,0.0,0.0,0.0
51464083,40963,0,1.177734375,-1.779296875,-0.73046875,-2.509765625,0.0,0.0,0.0
51465333,40964,0,1.076171875,-2.21484375,-0.865234375,-3.080078125,0.0,0.0,0.0
51466584,40965,0,0.8046875,-2.193359375,-0.736328125,-2.9296875,0.0,0.0,0.0
51467835,40966,0,0.740234375,-1.814453125,-0.578125,-2.392578125,0.0,0.0,0.0
51469085,40967,0,0.970703125,-1.134765625,-0.455078125,-1.58984375,0.0,0.0,0.0
51470336,40968,0,0.9375,-0.34375,-0.158203125,-0.501953125,0.0,0.0,0.0
51471587,40969,0,0.974609375,0.376953125,0.10546875,0.482421875,0.0,0.0,0.0
51472838,40970,0,1.271484375,0.9453125,0.232421875,1.177734375,0.0,0.0,0.0
51474090,40971,0,1.15234375,1.28125,0.44921875,1.73046875,0.0,0.0,0.0
51475341,40972,0,0.96875,1.33203125,0.55859375,1.890625,0.0,0.0,0.0
51476592,40973,0,1.025390625,1.123046875,0.482421875,1.60546875,0.0,0.0,0.0
51477844,40974,0,0.962890625,0.755859375,0.359375,1.115234375,0.0,0.0,0.0
51479095,40975,0,0.857421875,0.298828125,0.21875,0.517578125,0.0,0.0,0.0
51480346,40976,0,0.99609375,-0.15625,-0.02734375,-0.18359375,0.0,0.0,0.0
51481597,40977,0,1.154296875,-0.53125,-0.271484375,-0.802734375,0.0,0.0,0.0
51482849,40978,0,1.052734375,-0.73828125,-0.283203125,-1.021484375,0.0,0.0,0.0
51484099,40979,0,1.0078125,-0.69140625,-0.26171875,-0.953125,0.0,0.0,0.0
51485351,40980,0,1.04296875,-0.470703125,-0.10546875,-0.576171875,0.0,0.0,0.0
51486602,40981,0,0.8515625,-0.19921875,-0.0078125,-0.20703125,0.0,0.0,0.0
51487854,40982,0,1.013671875,0.060546875,0.01953125,0.080078125,0.0,0.0,0.0
51489104,40983,0,1.07421875,0.28515625,0.0859375,0.37109375,0.0,0.0,0.0
51490354,40984,0,1.07421875,0.421875,0.158203125,0.580078125,0.0,0.0,0.0
51491605,40985,0,1.12890625,0.45703125,0.158203125,0.615234375,0.0,0.0,0.0
51492855,40986,0,1.080078125,0.4140625,0.171875,0.5859375,0.0,0.0,0.0
51494107,40987,0,0.89453125,0.283203125,0.201171875,0.484375,0.0,0.0,0.0
51495358,40988,0,0.916015625,0.12109375,0.125,0.24609375,0.0,0.0,0.0
51496609,40989,0,0.9765625,-0.041015625,0.0390625,-0.001953125,0.0,0.0,0.0
51497859,40990,0,0.970703125,-0.173828125,-0.025390625,-0.19921875,0.0,0.0,0.0
51499111,40991,0,1.0546875,-0.271484375,-0.08984375,-0.361328125,0.0,0.0,0.0
51500362,40992,0,1.115234375,-0.302734375,-0.1328125,-0.435546875,0.0,0.0,0.0
51501613,40993,0,1.04296875,-0.26953125,-0.09765625,-0.3671875,0.0,0.0,0.0
51502865,40994,0,0.94921875,-0.19921875,-0.021484375,-0.220703125,0.0,0.0,0.0
51504115,40995,0,0.95703125,-0.107421875,0.015625,-0.091796875,0.0,0.0,0.0
51505365,40996,0,0.939453125,-0.01171875,0.060546875,0.048828125,0.0,0.0,0.0
51506617,40997,0,0.943359375,0.083984375,0.095703125,0.1796875,0.0,0.0,0.0
51507867,40998,0,1.05859375,0.13671875,0.0625,0.19921875,0.0,0.0,0.0
51509118,40999,0,1.095703125,0.146484375,0.052734375,0.19921875,0.0,0.0,0.0
51510369,41000,0,1.048828125,0.130859375,0.064453125,0.1953125,0.0,0.0,0.0
51511620,41001,0,1.02734375,0.083984375,0.056640625,0.140625,0.0,0.0,0.0
51512871,41002,0,0.994140625,0.017578125,0.0546875,0.072265625,0.0,0.0,0.0
51514123,41003,0,0.931640625,-0.037109375,0.056640625,0.01953125,0.0,0.0,0.0
51515374,41004,0,0.93359375,-0.083984375,0.025390625,-0.05859375,0.0,0.0,0.0
51516624,41005,0,1.021484375,-0.107421875,-0.02734375,-0.134765625,0.0,0.0,0.0
51517875,41006,0,1.037109375,-0.11328125,-0.04296875,-0.15625,0.0,0.0,0.0
51519125,41007,0,1.04296875,-0.10546875,-0.041015625,-0.146484375,0.0,0.0,0.0
51520375,41008,0,1.05859375,-0.083984375,-0.02734375,-0.111328125,0.0,0.0,0.0
51521626,41009,0,1.017578125,-0.052734375,0.001953125,-0.05078125,0.0,0.0,0.0
51522877,41010,0,0.953125,-0.01953125,0.044921875,0.025390625,0.0,0.0,0.0
51524129,41011,0,0.95703125,0.01171875,0.0546875,0.06640625,0.0,0.0,0.0
51525380,41012,0,0.984375,0.025390625,0.0390625,0.064453125,0.0,0.0,0.0
51526630,41013,0,1.0,0.03515625,0.03515625,0.0703125,0.0,0.0,0.0
51527881,41014,0,1.044921875,0.037109375,0.015625,0.052734375,0.0,0.0,0.0
51529133,41015,0,1.078125,0.01171875,0.00390625,0.015625,0.0,0.0,0.0
51530384,41016,0,1.017578125,-0.009765625,0.013671875,0.00390625,0.0,0.0,0.0
51531634,41017,0,0.986328125,-0.03125,0.029296875,-0.001953125,0.0,0.0,0.0
51532886,41018,0,0.974609375,-0.05078125,0.021484375,-0.029296875,0.0,0.0,0.0
51534136,41019,0,0.95703125,-0.0625,0.021484375,-0.041015625,0.0,0.0,0.0
51535386,41020,0,0.978515625,-0.0546875,-0.015625,-0.0703125,0.0,0.0,0.0
51536638,41021,0,1.037109375,-0.056640625,-0.017578125,-0.07421875,0.0,0.0,0.0
51537888,41022,0,1.052734375,-0.029296875,0.001953125,-0.02734375,0.0,0.0,0.0
51539139,41023,0,1.025390625,-0.015625,0.01171875,-0.00390625,0.0,0.0,0.0
51540391,41024,0,0.98828125,-0.009765625,0.0234375,0.013671875,0.0,0.0,0.0
51541641,41025,0,0.955078125,-0.005859375,0.041015625,0.03515625,0.0,0.0,0.0
51542892,41026,0,0.98046875,-0.005859375,0.03515625,0.029296875,0.0,0.0,0.0
51544142,41027,0,1.01953125,-0.0078125,0.0078125,0.0,0.0,0.0,0.0
51545393,41028,0,1.02734375,-0.0078125,0.0078125,0.0,0.0,0.0,0.0
51546645,41029,0,1.029296875,-0.01171875,0.01171875,0.0,0.0,0.0,0.0
51547895,41030,0,1.033203125,-0.01953125,0.001953125,-0.017578125,0.0,0.0,0.0
51549147,41031,0,0.998046875,-0.02734375,0.015625,-0.01171875,0.0,0.0,0.0
51550397,41032,0,0.974609375,-0.029296875,0.02734375,-0.001953125,0.0,0.0,0.0
51551649,41033,0,0.984375,-0.03125,0.015625,-0.015625,0.0,0.0,0.0
51552899,41034,0,0.99609375,-0.03125,0.013671875,-0.017578125,0.0,0.0,0.0
51554149,41035,0,1.0078125,-0.03125,0.01171875,-0.01953125,0.0,0.0,0.0
51555399,41036,0,1.029296875,-0.029296875,0.00390625,-0.025390625,0.0,0.0,0.0
51556650,41037,0,1.03125,-0.015625,0.00390625,-0.01171875,0.0,0.0,0.0
51557902,41038,0,1.005859375,-0.013671875,0.013671875,0.0,0.0,0.0,0.0
51559153,41039,0,0.98828125,-0.01171875,0.03515625,0.0234375,0.0,0.0,0.0
51560404,41040,0,0.986328125,-0.01171875,0.02734375,0.015625,0.0,0.0,0.0
51561654,41041,0,0.986328125,-0.009765625,0.02734375,0.017578125,0.0,0.0,0.0
51562904,41042,0,0.9921875,-0.013671875,0.025390625,0.01171875,0.0,0.0,0.0
51564155,41043,0,1.025390625,-0.021484375,0.0,-0.021484375,0.0,0.0,0.0
51565407,41044,0,1.013671875,-0.0234375,0.00390625,-0.01953125,0.0,0.0,0.0
51566657,41045,0,1.005859375,-0.029296875,0.015625,-0.013671875,0.0,0.0,0.0
51567909,41046,0,1.0078125,-0.029296875,0.013671875,-0.015625,0.0,0.0,0.0
51569159,41047,0,1.0,-0.025390625,0.025390625,0.0,0.0,0.0,0.0
51570409,41048,0,0.982421875,-0.029296875,0.029296875,0.0,0.0,0.0,0.0
51571661,41049,0,0.998046875,-0.025390625,0.01953125,-0.005859375,0.0,0.0,0.0
51572911,41050,0,1.013671875,-0.0234375,0.009765625,-0.013671875,0.0,0.0,0.0
51574161,41051,0,1.013671875,-0.029296875,0.01171875,-0.017578125,0.0,0.0,0.0
51575411,41052,0,1.009765625,-0.02734375,0.013671875,-0.013671875,0.0,0.0,0.0
51576663,41053,0,1.005859375,-0.0234375,0.017578125,-0.005859375,0.0,0.0,0.0
51577913,41054,0,0.99609375,-0.025390625,0.029296875,0.00390625,0.0,0.0,0.0
51579164,41055,0,0.990234375,-0.029296875,0.0234375,-0.005859375,0.0,0.0,0.0
51580415,41056,0,1.00390625,-0.033203125,0.015625,-0.017578125,0.0,0.0,0.0
51581666,41057,0,1.009765625,-0.033203125,0.01953125,-0.013671875,0.0,0.0,0.0
51582916,41058,0,1.009765625,-0.03515625,0.013671875,-0.021484375,0.0,0.0,0.0
51584167,41059,0,1.01171875,-0.033203125,0.0078125,-0.025390625,0.0,0.0,0.0
51585417,41060,0,0.998046875,-0.037109375,0.01171875,-0.025390625,0.0,0.0,0.0
51586668,41061,0,0.994140625,-0.029296875,0.021484375,-0.0078125,0.0,0.0,0.0
51587920,41062,0,0.99609375,-0.02734375,0.017578125,-0.009765625,0.0,0.0,0.0
51589171,41063,0,0.994140625,-0.033203125,0.021484375,-0.01171875,0.0,0.0,0.0
51590421,41064,0,0.99609375,-0.03125,0.017578125,-0.013671875,0.0,0.0,0.0
51591672,41065,0,1.0078125,-0.03125,0.009765625,-0.021484375,0.0,0.0,0.0
51592924,41066,0,1.021484375,-0.03125,0.013671875,-0.017578125,0.0,0.0,0.0
51594174,41067,0,1.0,-0.033203125,0.017578125,-0.015625,0.0,0.0,0.0
51595425,41068,0,0.99609375,-0.03515625,0.015625,-0.01953125,0.0,0.0,0.0
51596677,41069,0,0.994140625,-0.03125,0.01953125,-0.01171875,0.0,0.0,0.0
51597927,41070,0,0.998046875,-0.03515625,0.01953125,-0.015625,0.0,0.0,0.0
51599177,41071,0,1.01171875,-0.033203125,0.0078125,-0.025390625,0.0,0.0,0.0
51600429,41072,0,1.009765625,-0.029296875,0.01171875,-0.017578125,0.0,0.0,0.0
51601679,41073,0,1.005859375,-0.029296875,0.009765625,-0.01953125,0.0,0.0,0.0
51602931,41074,0,1.0078125,-0.029296875,0.009765625,-0.01953125,0.0,0.0,0.0
51604181,41075,0,0.998046875,-0.033203125,0.013671875,-0.01953125,0.0,0.0,0.0
51605431,41076,0,0.99609375,-0.029296875,0.013671875,-0.015625,0.0,0.0,0.0
51606683,41077,0,1.00390625,-0.025390625,0.017578125,-0.0078125,0.0,0.0,0.0
51607933,41078,0,1.0078125,-0.0234375,0.017578125,-0.005859375,0.0,0.0,0.0
51609183,41079,0,1.005859375,-0.029296875,0.01953125,-0.009765625,0.0,0.0,0.0
51610434,41080,0,1.0078125,-0.0234375,0.005859375,-0.017578125,0.0,0.0,0.0
51611685,41081,0,1.0078125,-0.0234375,0.015625,-0.0078125,0.0,0.0,0.0
51612936,41082,0,0.994140625,-0.025390625,0.01953125,-0.005859375,0.0,0.0,0.0
51614186,41083,0,0.998046875,-0.01953125,0.02734375,0.0078125,0.0,0.0,0.0
51615437,41084,0,1.005859375,-0.0234375,0.0078125,-0.015625,0.0,0.0,0.0
51616687,41085,0,1.00390625,-0.02734375,0.013671875,-0.013671875,0.0,0.0,0.0
51617937,41086,0,1.00390625,-0.025390625,0.013671875,-0.01171875,0.0,0.0,0.0
51619188,41087,0,1.0,-0.017578125,0.015625,-0.001953125,0.0,0.0,0.0
51620440,41088,0,1.013671875,-0.01953125,0.009765625,-0.009765625,0.0,0.0,0.0
51621690,41089,0,1.005859375,-0.021484375,0.015625,-0.005859375,0.0,0.0,0.0
51622942,41090,0,0.998046875,-0.021484375,0.017578125,-0.00390625,0.0,0.0,0.0
51624193,41091,0,0.998046875,-0.021484375,0.015625,-0.005859375,0.0,0.0,0.0
51625445,41092,0,0.998046875,-0.021484375,0.013671875,-0.0078125,0.0,0.0,0.0
51626695,41093,0,1.00390625,-0.025390625,0.01953125,-0.005859375,0.0,0.0,0.0
51627947,41094,0,1.009765625,-0.021484375,0.01953125,-0.001953125,0.0,0.0,0.0
51629198,41095,0,1.005859375,-0.0234375,0.017578125,-0.005859375,0.0,0.0,0.0
51630450,41096,0,1.005859375,-0.013671875,0.01171875,-0.001953125,0.0,0.0,0.0
51631700,41097,0,1.0,-0.021484375,0.01953125,-0.001953125,0.0,0.0,0.0
51632952,41098,0,0.994140625,-0.01953125,0.021484375,0.001953125,0.0,0.0,0.0
51634203,41099,0,1.0,-0.0234375,0.021484375,-0.001953125,0.0,0.0,0.0
51635454,41100,0,1.005859375,-0.0234375,0.021484375,-0.001953125,0.0,0.0,0.0
51636705,41101,0,1.0078125,-0.025390625,0.0234375,-0.001953125,0.0,0.0,0.0
51637957,41102,0,1.0078125,-0.0234375,0.013671875,-0.009765625,0.0,0.0,0.0
51639207,41103,0,1.01171875,-0.025390625,0.015625,-0.009765625,0.0,0.0,0.0
51640459,41104,0,1.005859375,-0.01953125,0.01953125,0.0,0.0,0.0,0.0
51641709,41105,0,1.001953125,-0.0234375,0.017578125,-0.005859375,0.0,0.0,0.0
51642959,41106,0,1.00390625,-0.02734375,0.0078125,-0.01953125,0.0,0.0,0.0
51644209,41107,0,1.013671875,-0.029296875,0.017578125,-0.01171875,0.0,0.0,0.0
51645459,41108,0,1.0078125,-0.02734375,0.015625,-0.01171875,0.0,0.0,0.0
51646711,41109,0,1.009765625,-0.02734375,0.017578125,-0.009765625,0.0,0.0,0.0
51647961,41110,0,1.0,-0.029296875,0.01953125,-0.009765625,0.0,0.0,0.0
51649213,41111,0,1.00390625,-0.02734375,0.01953125,-0.0078125,0.0,0.0,0.0
51650464,41112,0,0.998046875,-0.029296875,0.021484375,-0.0078125,0.0,0.0,0.0
51651715,41113,0,1.0,-0.0234375,0.0234375,0.0,0.0,0.0,0.0
51652966,41114,0,1.001953125,-0.03125,0.017578125,-0.013671875,0.0,0.0,0.0
51654216,41115,0,1.00390625,-0.03125,0.013671875,-0.017578125,0.0,0.0,0.0
51655467,41116,0,1.0078125,-0.029296875,0.01171875,-0.017578125,0.0,0.0,0.0
51656718,41117,0,1.001953125,-0.03125,0.01953125,-0.01171875,0.0,0.0,0.0
51657968,41118,0,1.001953125,-0.029296875,0.01953125,-0.009765625,0.0,0.0,0.0
51659219,41119,0,1.001953125,-0.0234375,0.01953125,-0.00390625,0.0,0.0,0.0
51660470,41120,0,1.005859375,-0.025390625,0.021484375,-0.00390625,0.0,0.0,0.0
51661721,41121,0,1.001953125,-0.029296875,0.01953125,-0.009765625,0.0,0.0,0.0
51662971,41122,0,1.00390625,-0.02734375,0.013671875,-0.013671875,0.0,0.0,0.0
51664223,41123,0,1.013671875,-0.02734375,0.013671875,-0.013671875,0.0,0.0,0.0
51665473,41124,0,1.00390625,-0.025390625,0.0234375,-0.001953125,0.0,0.0,0.0
51666723,41125,0,1.0,-0.02734375,0.013671875,-0.013671875,0.0,0.0,0.0
51667975,41126,0,1.001953125,-0.03515625,0.0078125,-0.02734375,0.0,0.0,0.0
51669226,41127,0,1.009765625,-0.02734375,0.0078125,-0.01953125,0.0,0.0,0.0
51670476,41128,0,1.00390625,-0.025390625,0.013671875,-0.01171875,0.0,0.0,0.0
51671728,41129,0,1.00390625,-0.02734375,0.009765625,-0.017578125,0.0,0.0,0.0
51672979,41130,0,1.005859375,-0.0234375,0.013671875,-0.009765625,0.0,0.0,0.0
51674229,41131,0,1.00390625,-0.025390625,0.01953125,-0.005859375,0.0,0.0,0.0
51675481,41132,0,1.0078125,-0.029296875,0.01953125,-0.009765625,0.0,0.0,0.0
51676731,41133,0,1.0078125,-0.025390625,0.01171875,-0.013671875,0.0,0.0,0.0
51677981,41134,0,1.001953125,-0.02734375,0.017578125,-0.009765625,0.0,0.0,0.0
51679232,41135,0,1.0,-0.025390625,0.021484375,-0.00390625,0.0,0.0,0.0
51680483,41136,0,1.00390625,-0.025390625,0.015625,-0.009765625,0.0,0.0,0.0
51681734,41137,0,1.0078125,-0.0234375,0.01953125,-0.00390625,0.0,0.0,0.0
51682986,41138,0,1.001953125,-0.02734375,0.015625,-0.01171875,0.0,0.0,0.0
51684236,41139,0,1.009765625,-0.021484375,0.01171875,-0.009765625,0.0,0.0,0.0
51685486,41140,0,1.0078125,-0.029296875,0.013671875,-0.015625,0.0,0.0,0.0
51686737,41141,0,1.005859375,-0.025390625,0.017578125,-0.0078125,0.0,0.0,0.0
51687987,41142,0,1.0,-0.025390625,0.015625,-0.009765625,0.0,0.0,0.0
51689238,41143,0,1.00390625,-0.02734375,0.017578125,-0.009765625,0.0,0.0,0.0
51690489,41144,0,0.99609375,-0.02734375,0.01953125,-0.0078125,0.0,0.0,0.0
51691740,41145,0,1.005859375,-0.01953125,0.017578125,-0.001953125,0.0,0.0,0.0
51692991,41146,0,1.009765625,-0.021484375,0.01953125,-0.001953125,0.0,0.0,0.0
51694241,41147,0,1.01171875,-0.025390625,0.013671875,-0.01171875,0.0,0.0,0.0
51695492,41148,0,1.0078125,-0.0234375,0.013671875,-0.009765625,0.0,0.0,0.0
51696744,41149,0,1.001953125,-0.021484375,0.013671875,-0.0078125,0.0,0.0,0.0
51697994,41150,0,0.99609375,-0.029296875,0.00390625,-0.025390625,0.0,0.0,0.0
51699245,41151,0,0.998046875,-0.025390625,0.013671875,-0.01171875,0.0,0.0,0.0
51700496,41152,0,1.0,-0.029296875,0.01953125,-0.009765625,0.0,0.0,0.0
51701747,41153,0,1.0078125,-0.02734375,0.01171875,-0.015625,0.0,0.0,0.0
51702998,41154,0,1.0078125,-0.02734375,0.015625,-0.01171875,0.0,0.0,0.0
51704249,41155,0,1.001953125,-0.0234375,0.013671875,-0.009765625,0.0,0.0,0.0
51705499,41156,0,0.998046875,-0.025390625,0.01953125,-0.005859375,0.0,0.0,0.0
51706751,41157,0,1.0,-0.02734375,0.01953125,-0.0078125,0.0,0.0,0.0
51708002,41158,0,1.00390625,-0.0234375,0.017578125,-0.005859375,0.0,0.0,0.0
51709253,41159,0,1.001953125,-0.02734375,0.013671875,-0.013671875,0.0,0.0,0.0
51710503,41160,0,1.0078125,-0.029296875,0.01953125,-0.009765625,0.0,0.0,0.0
51711755,41161,0,1.009765625,-0.025390625,0.015625,-0.009765625,0.0,0.0,0.0
51713005,41162,0,1.0,-0.025390625,0.015625,-0.009765625,0.0,0.0,0.0
51714256,41163,0,1.0,-0.025390625,0.013671875,-0.01171875,0.0,0.0,0.0
51715506,41164,0,1.0,-0.021484375,0.01171875,-0.009765625,0.0,0.0,0.0
51716757,41165,0,1.001953125,-0.02734375,0.013671875,-0.013671875,0.0,0.0,0.0
51718008,41166,0,1.013671875,-0.025390625,0.015625,-0.009765625,0.0,0.0,0.0
51719258,41167,0,1.01171875,-0.021484375,0.0078125,-0.013671875,0.0,0.0,0.0
51720508,41168,0,1.01171875,-0.03125,0.017578125,-0.013671875,0.0,0.0,0.0
51721759,41169,0,1.0078125,-0.0234375,0.017578125,-0.005859375,0.0,0.0,0.0
51723009,41170,0,1.001953125,-0.02734375,0.017578125,-0.009765625,0.0,0.0,0.0
51724259,41171,0,1.001953125,-0.033203125,0.013671875,-0.01953125,0.0,0.0,0.0
51725510,41172,0,0.99609375,-0.03125,0.013671875,-0.017578125,0.0,0.0,0.0
51726762,41173,0,1.0078125,-0.029296875,0.009765625,-0.01953125,0.0,0.0,0.0
51728012,41174,0,1.0078125,-0.02734375,0.013671875,-0.013671875,0.0,0.0,0.0
51729271,41175,0,1.0,-0.03125,0.01171875,-0.01953125,0.0,0.0,0.0
51730521,41176,0,1.0,-0.025390625,0.01171875,-0.013671875,0.0,0.0,0.0
51731773,41177,0,1.005859375,-0.0234375,0.01953125,-0.00390625,0.0,0.0,0.0
51733023,41178,0,1.0,-0.0234375,0.017578125,-0.005859375,0.0,0.0,0.0
51734274,41179,0,0.99609375,-0.02734375,0.017578125,-0.009765625,0.0,0.0,0.0
51735525,41180,0,1.005859375,-0.025390625,0.01171875,-0.013671875,0.0,0.0,0.0
51736776,41181,0,1.0078125,-0.029296875,0.015625,-0.013671875,0.0,0.0,0.0
51738026,41182,0,1.00390625,-0.025390625,0.009765625,-0.015625,0.0,0.0,0.0
51739276,41183,0,1.001953125,-0.03125,0.01171875,-0.01953125,0.0,0.0,0.0
51740527,41184,0,1.0,-0.029296875,0.015625,-0.013671875,0.0,0.0,0.0
51741778,41185,0,1.005859375,-0.03125,0.015625,-0.015625,0.0,0.0,0.0
51743029,41186,0,1.001953125,-0.025390625,0.01171875,-0.013671875,0.0,0.0,0.0
51744280,41187,0,1.005859375,-0.0234375,0.013671875,-0.009765625,0.0,0.0,0.0
51745531,41188,0,1.001953125,-0.025390625,0.015625,-0.009765625,0.0,0.0,0.0
51746783,41189,0,1.017578125,-0.021484375,0.0078125,-0.013671875,0.0,0.0,0.0
51748034,41190,0,1.0,-0.029296875,0.01171875,-0.017578125,0.0,0.0,0.0
51749286,41191,0,1.005859375,-0.03125,0.021484375,-0.009765625,0.0,0.0,0.0
51750537,41192,0,0.998046875,-0.025390625,0.013671875,-0.01171875,0.0,0.0,0.0
51751789,41193,0,1.0078125,-0.02734375,0.01953125,-0.0078125,0.0,0.0,0.0
51753039,41194,0,1.00390625,-0.025390625,0.021484375,-0.00390625,0.0,0.0,0.0
51754289,41195,0,1.005859375,-0.02734375,0.013671875,-0.013671875,0.0,0.0,0.0
51755541,41196,0,1.005859375,-0.025390625,0.015625,-0.009765625,0.0,0.0,0.0
51756792,41197,0,1.001953125,-0.02734375,0.021484375,-0.005859375,0.0,0.0,0.0
51758044,41198,0,1.0078125,-0.02734375,0.015625,-0.01171875,0.0,0.0,0.0
51759294,41199,0,1.0078125,-0.029296875,0.017578125,-0.01171875,0.0,0.0,0.0
51760544,41200,0,1.009765625,-0.025390625,0.01953125,-0.005859375,0.0,0.0,0.0
51761795,41201,0,1.0,-0.025390625,0.021484375,-0.00390625,0.0,0.0,0.0
51763045,41202,0,1.0,-0.025390625,0.013671875,-0.01171875,0.0,0.0,0.0
51764295,41203,0,0.998046875,-0.0234375,0.013671875,-0.009765625,0.0,0.0,0.0
51765546,41204,0,1.0078125,-0.021484375,0.015625,-0.005859375,0.0,0.0,0.0
51766797,41205,0,1.00390625,-0.025390625,0.01953125,-0.005859375,0.0,0.0,0.0
51768048,41206,0,1.005859375,-0.025390625,0.01953125,-0.005859375,0.0,0.0,0.0
51769299,41207,0,1.0,-0.029296875,0.013671875,-0.015625,0.0,0.0,0.0
51770550,41208,0,0.99609375,-0.021484375,0.013671875,-0.0078125,0.0,0.0,0.0
51771800,41209,0,1.001953125,-0.025390625,0.015625,-0.009765625,0.0,0.0,0.0
51773052,41210,0,1.013671875,-0.02734375,0.01953125,-0.0078125,0.0,0.0,0.0
51774303,41211,0,0.998046875,-0.0234375,0.013671875,-0.009765625,0.0,0.0,0.0
51775554,41212,0,0.998046875,-0.03125,0.009765625,-0.021484375,0.0,0.0,0.0
51776805,41213,0,1.0078125,-0.029296875,0.015625,-0.013671875,0.0,0.0,0.0
51778057,41214,0,1.005859375,-0.02734375,0.013671875,-0.013671875,0.0,0.0,0.0
51779308,41215,0,0.998046875,-0.025390625,0.013671875,-0.01171875,0.0,0.0,0.0
51780560,41216,0,1.005859375,-0.02734375,0.015625,-0.01171875,0.0,0.0,0.0
51781811,41217,0,1.001953125,-0.0234375,0.017578125,-0.005859375,0.0,0.0,0.0
51783063,41218,0,1.001953125,-0.02734375,0.013671875,-0.013671875,0.0,0.0,0.0
51784314,41219,0,0.998046875,-0.02734375,0.01171875,-0.015625,0.0,0.0,0.0
51785565,41220,0,1.005859375,-0.0234375,0.009765625,-0.013671875,0.0,0.0,0.0
51786816,41221,0,1.0,-0.025390625,0.015625,-0.009765625,0.0,0.0,0.0
51788066,41222,0,1.00390625,-0.029296875,0.01171875,-0.017578125,0.0,0.0,0.0
51789318,41223,0,1.0,-0.0234375,0.013671875,-0.009765625,0.0,0.0,0.0
51790569,41224,0,0.998046875,-0.0234375,0.013671875,-0.009765625,0.0,0.0,0.0
51791819,41225,0,1.005859375,-0.02734375,0.009765625,-0.017578125,0.0,0.0,0.0
51793070,41226,0,1.00390625,-0.025390625,0.01171875,-0.013671875,0.0,0.0,0.0
51794321,41227,0,1.009765625,-0.025390625,0.013671875,-0.01171875,0.0,0.0,0.0
51795572,41228,0,1.01171875,-0.0234375,0.017578125,-0.005859375,0.0,0.0,0.0
51796823,41229,0,0.998046875,-0.02734375,0.01171875,-0.015625,0.0,0.0,0.0
51798074,41230,0,1.005859375,-0.02734375,0.015625,-0.01171875,0.0,0.0,0.0
51799325,41231,0,1.0,-0.02734375,0.00390625,-0.0234375,0.0,0.0,0.0
51800575,41232,0,1.001953125,-0.025390625,0.015625,-0.009765625,0.0,0.0,0.0
51801825,41233,0,1.00390625,-0.025390625,0.009765625,-0.015625,0.0,0.0,0.0
51803076,41234,0,0.9921875,-0.02734375,0.017578125,-0.009765625,0.0,0.0,0.0
51804326,41235,0,1.005859375,-0.021484375,0.015625,-0.005859375,0.0,0.0,0.0
51805577,41236,0,1.001953125,-0.02734375,0.0078125,-0.01953125,0.0,0.0,0.0
51806828,41237,0,1.005859375,-0.025390625,0.01171875,-0.013671875,0.0,0.0,0.0
51808078,41238,0,1.001953125,-0.025390625,0.013671875,-0.01171875,0.0,0.0,0.0
51809329,41239,0,1.001953125,-0.029296875,0.01953125,-0.009765625,0.0,0.0,0.0
51810581,41240,0,0.998046875,-0.0234375,0.01953125,-0.00390625,0.0,0.0,0.0
51811833,41241,0,1.001953125,-0.025390625,0.017578125,-0.0078125,0.0,0.0,0.0
51813083,41242,0,1.00390625,-0.025390625,0.017578125,-0.0078125,0.0,0.0,0.0
51814333,41243,0,1.005859375,-0.025390625,0.01953125,-0.005859375,0.0,0.0,0.0
51815584,41244,0,1.005859375,-0.02734375,0.0234375,-0.00390625,0.0,0.0,0.0
51816835,41245,0,1.001953125,-0.02734375,0.015625,-0.01171875,0.0,0.0,0.0
51818085,41246,0,1.00390625,-0.03125,0.015625,-0.015625,0.0,0.0,0.0
51819336,41247,0,1.001953125,-0.02734375,0.017578125,-0.009765625,0.0,0.0,0.0
51820587,41248,0,1.0,-0.029296875,0.01953125,-0.009765625,0.0,0.0,0.0
51821838,41249,0,1.005859375,-0.029296875,0.017578125,-0.01171875,0.0,0.0,0.0
51823090,41250,0,1.001953125,-0.03515625,0.017578125,-0.017578125,0.0,0.0,0.0
51824341,41251,0,0.998046875,-0.0234375,0.005859375,-0.017578125,0.0,0.0,0.0
51825592,41252,0,1.005859375,-0.029296875,0.021484375,-0.0078125,0.0,0.0,0.0
51826844,41253,0,1.009765625,-0.025390625,0.01953125,-0.005859375,0.0,0.0,0.0
51828095,41254,0,1.0078125,-0.025390625,0.0078125,-0.017578125,0.0,0.0,0.0
51829346,41255,0,0.998046875,-0.03125,0.009765625,-0.021484375,0.0,0.0,0.0
51830597,41256,0,0.998046875,-0.033203125,0.009765625,-0.0234375,0.0,0.0,0.0
51831849,41257,0,1.0078125,-0.03125,0.01171875,-0.01953125,0.0,0.0,0.0
51833099,41258,0,1.009765625,-0.02734375,0.009765625,-0.017578125,0.0,0.0,0.0
51834351,41259,0,1.00390625,-0.0234375,0.015625,-0.0078125,0.0,0.0,0.0
51835602,41260,0,0.998046875,-0.021484375,0.01953125,-0.001953125,0.0,0.0,0.0
51836854,41261,0,1.0078125,-0.021484375,0.01953125,-0.001953125,0.0,0.0,0.0
51838104,41262,0,1.00390625,-0.025390625,0.017578125,-0.0078125,0.0,0.0,0.0
51839354,41263,0,1.001953125,-0.0234375,0.021484375,-0.001953125,0.0,0.0,0.0
51840605,41264,0,1.009765625,-0.0234375,0.017578125,-0.005859375,0.0,0.0,0.0
51841855,41265,0,1.005859375,-0.02734375,0.015625,-0.01171875,0.0,0.0,0.0
51843107,41266,0,1.001953125,-0.02734375,0.013671875,-0.013671875,0.0,0.0,0.0
51844358,41267,0,1.0078125,-0.03125,0.015625,-0.015625,0.0,0.0,0.0
51845609,41268,0,1.005859375,-0.033203125,0.015625,-0.017578125,0.0,0.0,0.0
51846859,41269,0,1.005859375,-0.03125,0.01953125,-0.01171875,0.0,0.0,0.0
51848111,41270,0,1.005859375,-0.029296875,0.013671875,-0.015625,0.0,0.0,0.0
51849362,41271,0,1.005859375,-0.029296875,0.01953125,-0.009765625,0.0,0.0,0.0
51850613,41272,0,1.01171875,-0.02734375,0.00390625,-0.0234375,0.0,0.0,0.0
51851865,41273,0,1.0078125,-0.025390625,0.017578125,-0.0078125,0.0,0.0,0.0
51853115,41274,0,1.00390625,-0.0234375,0.013671875,-0.009765625,0.0,0.0,0.0
51854365,41275,0,1.001953125,-0.025390625,0.013671875,-0.01171875,0.0,0.0,0.0
51855617,41276,0,1.01171875,-0.02734375,0.021484375,-0.005859375,0.0,0.0,0.0
51856867,41277,0,1.001953125,-0.021484375,0.001953125,-0.01953125,0.0,0.0,0.0
51858118,41278,0,1.005859375,-0.025390625,0.015625,-0.009765625,0.0,0.0,0.0
51859369,41279,0,1.005859375,-0.03125,0.015625,-0.015625,0.0,0.0,0.0
51860620,41280,0,1.005859375,-0.029296875,0.015625,-0.013671875,0.0,0.0,0.0
51861871,41281,0,1.005859375,-0.0234375,0.01171875,-0.01171875,0.0,0.0,0.0
51863123,41282,0,1.001953125,-0.03125,0.01171875,-0.01953125,0.0,0.0,0.0
51864374,41283,0,1.005859375,-0.02734375,0.013671875,-0.013671875,0.0,0.0,0.0
51865624,41284,0,1.009765625,-0.0234375,0.017578125,-0.005859375,0.0,0.0,0.0
51866875,41285,0,1.00390625,-0.021484375,0.013671875,-0.0078125,0.0,0.0,0.0
51868125,41286,0,1.009765625,-0.021484375,0.013671875,-0.0078125,0.0,0.0,0.0
51869375,41287,0,1.00390625,-0.029296875,0.017578125,-0.01171875,0.0,0.0,0.0
51870626,41288,0,1.001953125,-0.0234375,0.015625,-0.0078125,0.0,0.0,0.0
51871877,41289,0,0.998046875,-0.0234375,0.013671875,-0.009765625,0.0,0.0,0.0
51873129,41290,0,1.005859375,-0.029296875,0.015625,-0.013671875,0.0,0.0,0.0
51874380,41291,0,1.009765625,-0.02734375,0.01953125,-0.0078125,0.0,0.0,0.0
51875630,41292,0,1.001953125,-0.02734375,0.017578125,-0.009765625,0.0,0.0,0.0
51876881,41293,0,1.0,-0.021484375,0.015625,-0.005859375,0.0,0.0,0.0
51878133,41294,0,0.994140625,-0.0234375,0.017578125,-0.005859375,0.0,0.0,0.0
51879384,41295,0,1.013671875,-0.025390625,0.015625,-0.009765625,0.0,0.0,0.0
51880634,41296,0,1.01171875,-0.021484375,0.009765625,-0.01171875,0.0,0.0,0.0
51881886,41297,0,1.005859375,-0.0234375,0.009765625,-0.013671875,0.0,0.0,0.0
51883136,41298,0,0.994140625,-0.03125,0.01953125,-0.01171875,0.0,0.0,0.0
51884386,41299,0,0.998046875,-0.029296875,0.01953125,-0.009765625,0.0,0.0,0.0
51885638,41300,0,1.001953125,-0.017578125,0.017578125,0.0,0.0,0.0,0.0
51886888,41301,0,1.0,-0.025390625,0.01953125,-0.005859375,0.0,0.0,0.0
51888139,41302,0,0.998046875,-0.0234375,0.015625,-0.0078125,0.0,0.0,0.0
51889391,41303,0,1.001953125,-0.025390625,0.015625,-0.009765625,0.0,0.0,0.0
51890641,41304,0,1.001953125,-0.025390625,0.013671875,-0.01171875,0.0,0.0,0.0
51891892,41305,0,1.001953125,-0.0234375,0.013671875,-0.009765625,0.0,0.0,0.0
51893142,41306,0,1.009765625,-0.0234375,0.013671875,-0.009765625,0.0,0.0,0.0
51894393,41307,0,1.001953125,-0.0234375,0.015625,-0.0078125,0.0,0.0,0.0
51895645,41308,0,1.005859375,-0.02734375,0.01953125,-0.0078125,0.0,0.0,0.0
51896895,41309,0,1.0,-0.02734375,0.015625,-0.01171875,0.0,0.0,0.0
51898147,41310,0,1.0,-0.025390625,0.017578125,-0.0078125,0.0,0.0,-7.566871433779164e-19
51900649,41312,0,1.001953125,-0.025390625,0.017578125,-0.0078125,0.0,0.0,0.0
51901899,41313,0,1.00390625,-0.029296875,0.017578125,-0.01171875,0.0,0.0,0.0
51903149,41314,0,1.0,-0.0234375,0.01953125,-0.00390625,0.0,0.0,0.0
51904399,41315,0,1.009765625,-0.025390625,0.021484375,-0.00390625,0.0,0.0,0.0
51905650,41316,0,0.998046875,-0.0234375,0.013671875,-0.009765625,0.0,0.0,0.0
51906902,41317,0,1.009765625,-0.0234375,0.01953125,-0.00390625,0.0,0.0,0.0
51908153,41318,0,1.017578125,-0.02734375,0.015625,-0.01171875,0.0,0.0,0.0
51909404,41319,0,0.998046875,-0.025390625,0.01953125,-0.005859375,0.0,0.0,0.0
51910654,41320,0,0.99609375,-0.029296875,0.01953125,-0.009765625,0.0,0.0,0.0
51911904,41321,0,1.001953125,-0.02734375,0.013671875,-0.013671875,0.0,0.0,0.0
51913155,41322,0,1.00390625,-0.025390625,0.015625,-0.009765625,0.0,0.0,0.0
51914407,41323,0,1.009765625,-0.02734375,0.005859375,-0.021484375,0.0,0.0,0.0
51915657,41324,0,1.0078125,-0.02734375,0.013671875,-0.013671875,0.0,0.0,0.0
51916909,41325,0,1.0,-0.02734375,0.01953125,-0.0078125,0.0,0.0,0.0
51918159,41326,0,1.005859375,-0.02734375,0.009765625,-0.017578125,0.0,0.0,0.0
51919409,41327,0,1.001953125,-0.03125,0.021484375,-0.009765625,0.0,0.0,0.0
51920661,41328,0,1.001953125,-0.029296875,0.017578125,-0.01171875,0.0,0.0,0.0
51921911,41329,0,1.00390625,-0.02734375,0.017578125,-0.009765625,0.0,0.0,0.0
51923161,41330,0,0.998046875,-0.029296875,0.015625,-0.013671875,0.0,0.0,0.0
51924411,41331,0,1.00390625,-0.02734375,0.0078125,-0.01953125,0.0,0.0,0.0
51925663,41332,0,1.005859375,-0.029296875,0.01171875,-0.017578125,0.0,0.0,0.0
51926913,41333,0,1.00390625,-0.033203125,0.013671875,-0.01953125,0.0,0.0,0.0
51928164,41334,0,0.994140625,-0.02734375,0.009765625,-0.017578125,0.0,0.0,0.0
51929415,41335,0,1.001953125,-0.02734375,0.01953125,-0.0078125,0.0,0.0,0.0
51930666,41336,0,1.0,-0.03125,0.021484375,-0.009765625,0.0,0.0,0.0
51931916,41337,0,1.00390625,-0.025390625,0.009765625,-0.015625,0.0,0.0,0.0
51933167,41338,0,1.001953125,-0.029296875,0.015625,-0.013671875,0.0,0.0,0.0
51934417,41339,0,1.0078125,-0.033203125,0.013671875,-0.01953125,0.0,0.0,0.0
51935668,41340,0,0.998046875,-0.02734375,0.01953125,-0.0078125,0.0,0.0,0.0
51936920,41341,0,1.015625,-0.029296875,0.015625,-0.013671875,0.0,0.0,0.0
51938171,41342,0,1.01171875,-0.025390625,0.013671875,-0.01171875,0.0,0.0,0.0
51939421,41343,0,1.001953125,-0.025390625,0.017578125,-0.0078125,0.0,0.0,0.0
51940672,41344,0,1.001953125,-0.025390625,0.013671875,-0.01171875,0.0,0.0,0.0
51941924,41345,0,1.001953125,-0.03125,0.015625,-0.015625,0.0,0.0,0.0
51943174,41346,0,1.005859375,-0.025390625,0.015625,-0.009765625,0.0,0.0,0.0
51944425,41347,0,0.998046875,-0.0234375,0.015625,-0.0078125,0.0,0.0,0.0
51945677,41348,0,1.00390625,-0.0234375,0.017578125,-0.005859375,0.0,0.0,0.0
51946927,41349,0,1.005859375,-0.0234375,0.01953125,-0.00390625,0.0,0.0,0.0
51948177,41350,0,1.0,-0.02734375,0.017578125,-0.009765625,0.0,0.0,0.0
51949429,41351,0,1.00390625,-0.02734375,0.01171875,-0.015625,0.0,0.0,0.0
51950679,41352,0,1.005859375,-0.02734375,0.013671875,-0.013671875,0.0,0.0,0.0
51951931,41353,0,1.001953125,-0.025390625,0.013671875,-0.01171875,0.0,0.0,0.0
51953181,41354,0,1.0,-0.029296875,0.013671875,-0.015625,0.0,0.0,0.0
51954431,41355,0,1.005859375,-0.0234375,0.017578125,-0.005859375,0.0,0.0,0.0
51955683,41356,0,1.001953125,-0.025390625,0.013671875,-0.01171875,0.0,0.0,0.0
51956933,41357,0,0.99609375,-0.021484375,0.021484375,0.0,0.0,0.0,0.0
51958183,41358,0,1.001953125,-0.02734375,0.005859375,-0.021484375,0.0,0.0,0.0
51959434,41359,0,1.00390625,-0.03125,-0.001953125,-0.033203125,0.0,0.0,0.0
51960685,41360,0,1.001953125,-0.02734375,0.017578125,-0.009765625,0.0,0.0,0.0
51961936,41361,0,1.01171875,-0.03125,0.017578125,-0.013671875,0.0,0.0,0.0
51963186,41362,0,1.0,-0.025390625,0.021484375,-0.00390625,0.0,0.0,0.0
51964437,41363,0,0.998046875,-0.025390625,0.01953125,-0.005859375,0.0,0.0,0.0
51965687,41364,0,1.00390625,-0.01953125,0.021484375,0.001953125,0.0,0.0,0.0
51966937,41365,0,0.994140625,-0.013671875,0.01953125,0.005859375,0.0,0.0,0.0
51968188,41366,0,1.005859375,-0.01953125,0.013671875,-0.005859375,0.0,0.0,0.0
51969440,41367,0,1.00390625,-0.021484375,0.01953125,-0.001953125,0.0,0.0,0.0
51970690,41368,0,1.001953125,-0.0234375,0.01953125,-0.00390625,0.0,0.0,0.0
51971942,41369,0,1.001953125,-0.02734375,0.021484375,-0.005859375,0.0,0.0,0.0
51973193,41370,0,1.005859375,-0.03125,0.0078125,-0.0234375,0.0,0.0,0.0
51974445,41371,0,1.001953125,-0.033203125,0.0078125,-0.025390625,0.0,0.0,0.0
51975695,41372,0,1.0078125,-0.025390625,0.013671875,-0.01171875,0.0,0.0,0.0
51976947,41373,0,1.0078125,-0.02734375,0.015625,-0.01171875,0.0,0.0,0.0
51978198,41374,0,1.0,-0.02734375,0.013671875,-0.013671875,0.0,0.0,0.0
51979450,41375,0,1.001953125,-0.025390625,0.01171875,-0.013671875,0.0,0.0,0.0
51980700,41376,0,1.00390625,-0.02734375,0.01953125,-0.0078125,0.0,0.0,0.0
51981952,41377,0,1.001953125,-0.021484375,0.01953125,-0.001953125,0.0,0.0,0.0
51983203,41378,0,1.0078125,-0.02734375,0.021484375,-0.005859375,0.0,0.0,0.0
51984454,41379,0,1.001953125,-0.02734375,0.021484375,-0.005859375,0.0,0.0,0.0
51985705,41380,0,1.005859375,-0.0234375,0.017578125,-0.005859375,0.0,0.0,0.0
51986957,41381,0,1.00390625,-0.0234375,0.017578125,-0.005859375,0.0,0.0,0.0
51988207,41382,0,1.015625,-0.025390625,0.017578125,-0.0078125,0.0,0.0,0.0
51989459,41383,0,1.005859375,-0.025390625,0.01171875,-0.013671875,0.0,0.0,0.0
51990709,41384,0,1.01171875,-0.02734375,0.0078125,-0.01953125,0.0,0.0,0.0
51991959,41385,0,1.0,-0.029296875,0.017578125,-0.01171875,0.0,0.0,0.0
51993209,41386,0,1.0,-0.025390625,0.025390625,0.0,0.0,0.0,0.0
51994459,41387,0,1.001953125,-0.02734375,0.017578125,-0.009765625,0.0,0.0,0.0
51995711,41388,0,1.00390625,-0.02734375,0.015625,-0.01171875,0.0,0.0,0.0
51996961,41389,0,1.005859375,-0.02734375,0.017578125,-0.009765625,0.0,0.0,0.0
51998213,41390,0,1.005859375,-0.03125,0.017578125,-0.013671875,0.0,0.0,0.0
51999464,41391,0,1.001953125,-0.03125,0.013671875,-0.017578125,0.0,0.0,0.0
52000715,41392,0,1.001953125,-0.025390625,0.017578125,-0.0078125,0.0,0.0,0.0
52001966,41393,0,1.001953125,-0.025390625,0.009765625,-0.015625,0.0,0.0,0.0
52003216,41394,0,1.005859375,-0.025390625,0.013671875,-0.01171875,0.0,0.0,0.0
52004467,41395,0,1.00390625,-0.03125,0.015625,-0.015625,0.0,0.0,0.0
52005718,41396,0,1.005859375,-0.029296875,0.01953125,-0.009765625,0.0,0.0,0.0
52006968,41397,0,1.0,-0.02734375,0.005859375,-0.021484375,0.0,0.0,0.0
52008219,41398,0,1.001953125,-0.029296875,0.0078125,-0.021484375,0.0,0.0,0.0
52009470,41399,0,1.005859375,-0.029296875,0.013671875,-0.015625,0.0,0.0,0.0
52010721,41400,0,1.005859375,-0.02734375,0.015625,-0.01171875,0.0,0.0,0.0
52011971,41401,0,1.001953125,-0.025390625,0.017578125,-0.0078125,0.0,0.0,0.0
52013223,41402,0,1.009765625,-0.02734375,0.01953125,-0.0078125,0.0,0.0,0.0
52014473,41403,0,1.009765625,-0.025390625,0.01953125,-0.005859375,0.0,0.0,0.0
52015723,41404,0,1.0078125,-0.025390625,0.005859375,-0.01953125,0.0,0.0,0.0
52016975,41405,0,1.005859375,-0.025390625,0.01171875,-0.013671875,0.0,0.0,0.0
52018226,41406,0,1.0078125,-0.025390625,0.0234375,-0.001953125,0.0,0.0,0.0
52019476,41407,0,1.00390625,-0.021484375,0.013671875,-0.0078125,0.0,0.0,0.0
52020728,41408,0,1.0,-0.03125,0.013671875,-0.017578125,0.0,0.0,0.0
52021979,41409,0,1.001953125,-0.02734375,0.015625,-0.01171875,0.0,0.0,0.0
52023229,41410,0,1.001953125,-0.025390625,0.015625,-0.009765625,0.0,0.0,0.0
52024481,41411,0,1.0078125,-0.025390625,0.013671875,-0.01171875,0.0,0.0,0.0
52025731,41412,0,1.00390625,-0.029296875,0.015625,-0.013671875,0.0,0.0,0.0
52026981,41413,0,1.005859375,-0.02734375,0.017578125,-0.009765625,0.0,0.0,0.0
52028232,41414,0,1.005859375,-0.0234375,0.015625,-0.0078125,0.0,0.0,0.0
52029483,41415,0,1.005859375,-0.025390625,0.021484375,-0.00390625,0.0,0.0,0.0
52030734,41416,0,1.00390625,-0.025390625,0.013671875,-0.01171875,0.0,0.0,0.0
52031986,41417,0,0.998046875,-0.01953125,0.017578125,-0.001953125,0.0,0.0,0.0
52033236,41418,0,1.0078125,-0.01953125,0.017578125,-0.001953125,0.0,0.0,0.0
52034486,41419,0,1.005859375,-0.025390625,0.01953125,-0.005859375,0.0,0.0,0.0
52035737,41420,0,1.00390625,-0.02734375,0.017578125,-0.009765625,0.0,0.0,0.0
52036987,41421,0,1.005859375,-0.0234375,0.015625,-0.0078125,0.0,0.0,0.0
52038238,41422,0,0.99609375,-0.033203125,0.015625,-0.017578125,0.0,0.0,0.0
52039489,41423,0,1.001953125,-0.02734375,0.013671875,-0.013671875,0.0,0.0,0.0
52040740,41424,0,1.0078125,-0.025390625,0.00390625,-0.021484375,0.0,0.0,0.0
52041991,41425,0,1.00390625,-0.03125,0.009765625,-0.021484375,0.0,0.0,0.0
52043241,41426,0,0.99609375,-0.03125,0.01171875,-0.01953125,0.0,0.0,0.0
52044492,41427,0,1.001953125,-0.02734375,0.009765625,-0.017578125,0.0,0.0,0.0
52045744,41428,0,1.00390625,-0.021484375,0.015625,-0.005859375,0.0,0.0,0.0
52046994,41429,0,1.00390625,-0.021484375,0.013671875,-0.0078125,0.0,0.0,0.0
52048245,41430,0,1.00390625,-0.02734375,0.021484375,-0.005859375,0.0,0.0,0.0
52049496,41431,0,1.005859375,-0.0234375,0.013671875,-0.009765625,0.0,0.0,0.0
52050747,41432,0,1.0,-0.025390625,0.015625,-0.009765625,0.0,0.0,0.0
52051998,41433,0,1.00390625,-0.025390625,0.017578125,-0.0078125,0.0,0.0,0.0
52053249,41434,0,1.005859375,-0.025390625,0.01171875,-0.013671875,0.0,0.0,0.0
52054499,41435,0,1.0,-0.02734375,0.017578125,-0.009765625,0.0,0.0,0.0
52055751,41436,0,1.00390625,-0.0234375,0.017578125,-0.005859375,0.0,0.0,0.0
52057002,41437,0,1.005859375,-0.02734375,0.017578125,-0.009765625,0.0,0.0,0.0
52058253,41438,0,1.0,-0.021484375,0.017578125,-0.00390625,0.0,0.0,0.0
52059503,41439,0,1.00390625,-0.02734375,0.017578125,-0.009765625,0.0,0.0,0.0
52060755,41440,0,1.0,-0.02734375,0.01171875,-0.015625,0.0,0.0,0.0
52062005,41441,0,1.009765625,-0.02734375,0.015625,-0.01171875,0.0,0.0,0.0
52063256,41442,0,1.013671875,-0.029296875,0.015625,-0.013671875,0.0,0.0,0.0
52064506,41443,0,1.001953125,-0.029296875,0.009765625,-0.01953125,0.0,0.0,0.0
52065757,41444,0,0.994140625,-0.02734375,0.015625,-0.01171875,0.0,0.0,0.0
52067008,41445,0,1.00390625,-0.02734375,0.015625,-0.01171875,0.0,0.0,0.0
52068258,41446,0,1.001953125,-0.025390625,0.013671875,-0.01171875,0.0,0.0,0.0
52069508,41447,0,1.0,-0.0234375,0.025390625,0.001953125,0.0,0.0,0.0
52070759,41448,0,1.00390625,-0.01953125,0.021484375,0.001953125,0.0,0.0,0.0
52072009,41449,0,1.0,-0.029296875,0.013671875,-0.015625,0.0,0.0,0.0
52073259,41450,0,1.01171875,-0.02734375,0.01953125,-0.0078125,0.0,0.0,0.0
52074510,41451,0,1.00390625,-0.0234375,0.017578125,-0.005859375,0.0,0.0,0.0
52075762,41452,0,1.001953125,-0.0234375,0.017578125,-0.005859375,0.0,0.0,0.0
52077012,41453,0,1.00390625,-0.025390625,0.0078125,-0.017578125,0.0,0.0,0.0
52078271,41454,0,1.0078125,-0.02734375,0.01171875,-0.015625,0.0,0.0,0.0
52079521,41455,0,1.005859375,-0.025390625,0.015625,-0.009765625,0.0,0.0,0.0
52080773,41456,0,1.005859375,-0.0234375,0.009765625,-0.013671875,0.0,0.0,0.0
52082023,41457,0,1.001953125,-0.02734375,0.01171875,-0.015625,0.0,0.0,0.0
52083274,41458,0,1.005859375,-0.02734375,0.01171875,-0.015625,0.0,0.0,0.0
52084525,41459,0,1.00390625,-0.02734375,0.015625,-0.01171875,0.0,0.0,0.0
52085776,41460,0,1.005859375,-0.029296875,0.015625,-0.013671875,0.0,0.0,0.0
52087026,41461,0,1.00390625,-0.02734375,0.0078125,-0.01953125,0.0,0.0,0.0
52088276,41462,0,1.0078125,-0.021484375,0.015625,-0.005859375,0.0,0.0,0.0
52089527,41463,0,1.001953125,-0.03125,0.017578125,-0.013671875,0.0,0.0,0.0
52090778,41464,0,1.001953125,-0.01953125,0.015625,-0.00390625,0.0,0.0,0.0
52092029,41465,0,1.00390625,-0.021484375,0.0,-0.021484375,0.0,0.0,0.0
52093280,41466,0,1.0,-0.02734375,0.013671875,-0.013671875,0.0,0.0,0.0
52094531,41467,0,0.998046875,-0.03125,0.015625,-0.015625,0.0,0.0,0.0
52095783,41468,0,1.009765625,-0.02734375,0.015625,-0.01171875,0.0,0.0,0.0
52097034,41469,0,1.0078125,-0.01953125,0.00390625,-0.015625,0.0,0.0,0.0
52098286,41470,0,1.0,-0.025390625,0.013671875,-0.01171875,0.0,0.0,0.0
52099537,41471,0,1.0078125,-0.033203125,0.00390625,-0.029296875,0.0,0.0,0.0
52100789,41472,0,1.0078125,-0.02734375,0.01171875,-0.015625,0.0,0.0,0.0
52102039,41473,0,0.99609375,-0.025390625,0.013671875,-0.01171875,0.0,0.0,0.0
52103289,41474,0,1.005859375,-0.02734375,0.015625,-0.01171875,0.0,0.0,0.0
52104541,41475,0,1.009765625,-0.025390625,0.009765625,-0.015625,0.0,0.0,0.0
52105792,41476,0,1.005859375,-0.02734375,0.01171875,-0.015625,0.0,0.0,0.0
52107044,41477,0,1.005859375,-0.029296875,0.015625,-0.013671875,0.0,0.0,0.0
52108294,41478,0,1.001953125,-0.029296875,0.015625,-0.013671875,0.0,0.0,0.0
52109544,41479,0,1.0,-0.025390625,0.017578125,-0.0078125,0.0,0.0,0.0
52110795,41480,0,1.00390625,-0.02734375,0.001953125,-0.025390625,0.0,0.0,0.0
52112045,41481,0,1.0,-0.025390625,0.013671875,-0.01171875,0.0,0.0,0.0
52113295,41482,0,1.0078125,-0.025390625,0.017578125,-0.0078125,0.0,0.0,0.0
52114546,41483,0,1.00390625,-0.025390625,0.017578125,-0.0078125,0.0,0.0,0.0
52115797,41484,0,1.0078125,-0.025390625,0.01953125,-0.005859375,0.0,0.0,0.0
52117048,41485,0,1.005859375,-0.025390625,0.01953125,-0.005859375,0.0,0.0,0.0
52118299,41486,0,1.00390625,-0.0234375,0.01953125,-0.00390625,0.0,0.0,0.0
52119550,41487,0,1.0078125,-0.025390625,0.015625,-0.009765625,0.0,0.0,0.0
52120800,41488,0,1.015625,-0.03125,0.0234375,-0.0078125,0.0,0.0,0.0
52122052,41489,0,0.99609375,-0.02734375,0.0078125,-0.01953125,0.0,0.0,0.0
52123303,41490,0,1.0,-0.0234375,0.01953125,-0.00390625,0.0,0.0,0.0
52124554,41491,0,1.01171875,-0.03125,0.01171875,-0.01953125,0.0,0.0,0.0
52125805,41492,0,1.0,-0.025390625,0.009765625,-0.015625,0.0,0.0,0.0
52127057,41493,0,1.00390625,-0.029296875,0.013671875,-0.015625,0.0,0.0,0.0
52128308,41494,0,1.0078125,-0.0234375,0.015625,-0.0078125,0.0,0.0,0.0
52129560,41495,0,1.001953125,-0.025390625,0.013671875,-0.01171875,0.0,0.0,0.0
52130811,41496,0,1.0078125,-0.02734375,0.01953125,-0.0078125,0.0,0.0,0.0
52132063,41497,0,1.001953125,-0.021484375,0.01171875,-0.009765625,0.0,0.0,0.0
52133314,41498,0,0.998046875,-0.02734375,0.01953125,-0.0078125,0.0,0.0,0.0
52134565,41499,0,1.005859375,-0.02734375,0.021484375,-0.005859375,0.0,0.0,0.0
52135816,41500,0,1.00390625,-0.025390625,0.009765625,-0.015625,0.0,0.0,0.0
52137066,41501,0,1.0,-0.029296875,0.01953125,-0.009765625,0.0,0.0,0.0
52138318,41502,0,1.01171875,-0.02734375,0.013671875,-0.013671875,0.0,0.0,0.0
52139569,41503,0,1.005859375,-0.029296875,0.0078125,-0.021484375,0.0,0.0,0.0
52140819,41504,0,1.001953125,-0.0234375,0.017578125,-0.005859375,0.0,0.0,0.0
52142070,41505,0,1.0078125,-0.0234375,0.015625,-0.0078125,0.0,0.0,0.0
52143321,41506,0,1.001953125,-0.021484375,0.01171875,-0.009765625,0.0,0.0,0.0
52144572,41507,0,1.0,-0.013671875,0.025390625,0.01171875,0.0,0.0,0.0
52145823,41508,0,1.0078125,-0.0234375,0.013671875,-0.009765625,0.0,0.0,0.0
52147074,41509,0,1.005859375,-0.025390625,0.017578125,-0.0078125,0.0,0.0,0.0
52148325,41510,0,1.01953125,-0.021484375,0.017578125,-0.00390625,0.0,0.0,0.0
52149575,41511,0,1.017578125,-0.02734375,0.00390625,-0.0234375,0.0,0.0,0.0
52150825,41512,0,0.994140625,-0.025390625,0.021484375,-0.00390625,0.0,0.0,0.0
52152076,41513,0,0.998046875,-0.029296875,0.021484375,-0.0078125,0.0,0.0,0.0
52153326,41514,0,0.998046875,-0.029296875,0.021484375,-0.0078125,0.0,0.0,0.0
52154577,41515,0,1.00390625,-0.025390625,0.015625,-0.009765625,0.0,0.0,0.0
52155828,41516,0,1.001953125,-0.029296875,0.013671875,-0.015625,0.0,0.0,0.0
52157078,41517,0,1.0078125,-0.03125,0.015625,-0.015625,0.0,0.0,0.0
52158329,41518,0,1.013671875,-0.02734375,0.015625,-0.01171875,0.0,0.0,0.0
52159581,41519,0,1.001953125,-0.0234375,0.013671875,-0.009765625,0.0,0.0,0.0
52160833,41520,0,1.0,-0.03125,0.017578125,-0.013671875,0.0,0.0,0.0
52162083,41521,0,1.0,-0.02734375,0.015625,-0.01171875,0.0,0.0,0.0
52163333,41522,0,1.005859375,-0.029296875,0.013671875,-0.015625,0.0,0.0,0.0
52164584,41523,0,0.994140625,-0.025390625,0.013671875,-0.01171875,0.0,0.0,0.0
52165835,41524,0,0.998046875,-0.02734375,0.021484375,-0.005859375,0.0,0.0,0.0
52167085,41525,0,1.005859375,-0.025390625,0.017578125,-0.0078125,0.0,0.0,0.0
52168336,41526,0,1.001953125,-0.025390625,0.013671875,-0.01171875,0.0,0.0,0.0
52169587,41527,0,1.005859375,-0.02734375,0.013671875,-0.013671875,0.0,0.0,0.0
52170838,41528,0,1.005859375,-0.02734375,0.01953125,-0.0078125,0.0,0.0,0.0
52172090,41529,0,1.00390625,-0.0234375,0.015625,-0.0078125,0.0,0.0,0.0
52173341,41530,0,1.00390625,-0.03125,0.0078125,-0.0234375,0.0,0.0,0.0
52174592,41531,0,1.0,-0.033203125,0.013671875,-0.01953125,0.0,0.0,0.0
52175844,41532,0,1.01171875,-0.0234375,0.005859375,-0.017578125,0.0,0.0,0.0
52177095,41533,0,0.998046875,-0.025390625,0.013671875,-0.01171875,0.0,0.0,0.0
52178346,41534,0,1.009765625,-0.02734375,0.017578125,-0.009765625,0.0,0.0,0.0
52179597,41535,0,1.001953125,-0.0234375,0.013671875,-0.009765625,0.0,0.0,0.0
52180849,41536,0,1.0,-0.029296875,0.021484375,-0.0078125,0.0,0.0,0.0
52182099,41537,0,1.0078125,-0.025390625,0.01171875,-0.013671875,0.0,0.0,0.0
52183351,41538,0,1.001953125,-0.025390625,0.013671875,-0.01171875,0.0,0.0,0.0
52184602,41539,0,1.001953125,-0.02734375,0.009765625,-0.017578125,0.0,0.0,0.0
52185854,41540,0,1.009765625,-0.025390625,0.013671875,-0.01171875,0.0,0.0,0.0
52187104,41541,0,1.0,-0.0234375,0.017578125,-0.005859375,0.0,0.0,0.0
52188354,41542,0,1.00390625,-0.02734375,0.013671875,-0.013671875,0.0,0.0,0.0
52189605,41543,0,1.00390625,-0.02734375,0.013671875,-0.013671875,0.0,0.0,0.0
52190855,41544,0,1.0078125,-0.02734375,0.01171875,-0.015625,0.0,0.0,0.0
52192107,41545,0,0.9921875,-0.0234375,0.015625,-0.0078125,0.0,0.0,0.0
52193358,41546,0,1.005859375,-0.029296875,0.009765625,-0.01953125,0.0,0.0,0.0
52194609,41547,0,1.0078125,-0.025390625,0.01171875,-0.013671875,0.0,0.0,0.0
52195859,41548,0,1.0078125,-0.0234375,0.015625,-0.0078125,0.0,0.0,0.0
52197111,41549,0,1.005859375,-0.0234375,0.017578125,-0.005859375,0.0,0.0,0.0
52198362,41550,0,1.0,-0.025390625,0.01171875,-0.013671875,0.0,0.0,0.0
52199613,41551,0,1.00390625,-0.025390625,0.015625,-0.009765625,0.0,0.0,0.0
52200865,41552,0,1.005859375,-0.033203125,0.021484375,-0.01171875,0.0,0.0,0.0
52202115,41553,0,1.0,-0.02734375,0.017578125,-0.009765625,0.0,0.0,0.0
52203365,41554,0,1.0,-0.029296875,0.01171875,-0.017578125,0.0,0.0,0.0
52204617,41555,0,0.99609375,-0.025390625,0.0078125,-0.017578125,0.0,0.0,0.0
52205867,41556,0,0.99609375,-0.02734375,0.013671875,-0.013671875,0.0,0.0,0.0
52207118,41557,0,1.001953125,-0.02734375,0.013671875,-0.013671875,0.0,0.0,0.0
52208369,41558,0,1.015625,-0.0234375,0.017578125,-0.005859375,0.0,0.0,0.0
52209620,41559,0,1.00390625,-0.02734375,0.009765625,-0.017578125,0.0,0.0,0.0
52210871,41560,0,1.0,-0.02734375,0.01171875,-0.015625,0.0,0.0,0.0
52212123,41561,0,0.998046875,-0.025390625,0.01953125,-0.005859375,0.0,0.0,0.0
52213374,41562,0,1.0,-0.02734375,0.01171875,-0.015625,0.0,0.0,0.0
52214624,41563,0,1.001953125,-0.02734375,0.017578125,-0.009765625,0.0,0.0,0.0
52215875,41564,0,1.005859375,-0.02734375,0.013671875,-0.013671875,0.0,0.0,0.0
52217125,41565,0,1.005859375,-0.029296875,0.009765625,-0.01953125,0.0,0.0,0.0
52218375,41566,0,1.001953125,-0.025390625,0.013671875,-0.01171875,0.0,0.0,0.0
52219626,41567,0,1.001953125,-0.025390625,0.01171875,-0.013671875,0.0,0.0,0.0
52220877,41568,0,0.998046875,-0.025390625,0.013671875,-0.01171875,0.0,0.0,0.0
52222129,41569,0,1.005859375,-0.0234375,0.015625,-0.0078125,0.0,0.0,0.0
52223380,41570,0,1.0078125,-0.029296875,0.015625,-0.013671875,0.0,0.0,0.0
52224630,41571,0,1.0,-0.025390625,0.015625,-0.009765625,0.0,0.0,0.0
52225881,41572,0,1.005859375,-0.02734375,0.01953125,-0.0078125,0.0,0.0,0.0
52227133,41573,0,1.001953125,-0.033203125,0.005859375,-0.02734375,0.0,0.0,0.0
52228384,41574,0,1.0078125,-0.0234375,0.017578125,-0.005859375,0.0,0.0,0.0
52229634,41575,0,1.015625,-0.021484375,0.01171875,-0.009765625,0.0,0.0,0.0
52230886,41576,0,1.00390625,-0.0234375,0.013671875,-0.009765625,0.0,0.0,0.0
52232136,41577,0,1.0078125,-0.029296875,0.015625,-0.013671875,0.0,0.0,0.0
52233386,41578,0,1.0,-0.025390625,0.0078125,-0.017578125,0.0,0.0,0.0
52234638,41579,0,1.0,-0.029296875,0.021484375,-0.0078125,0.0,0.0,0.0
52235888,41580,0,0.998046875,-0.029296875,0.009765625,-0.01953125,0.0,0.0,0.0
52237139,41581,0,1.001953125,-0.02734375,0.01953125,-0.0078125,0.0,0.0,0.0
52238391,41582,0,1.005859375,-0.025390625,0.01953125,-0.005859375,0.0,0.0,0.0
52239641,41583,0,1.005859375,-0.02734375,0.013671875,-0.013671875,0.0,0.0,0.0
52240892,41584,0,1.005859375,-0.02734375,0.013671875,-0.013671875,0.0,0.0,0.0
52242142,41585,0,1.005859375,-0.025390625,0.015625,-0.009765625,0.0,0.0,0.0
52243393,41586,0,1.001953125,-0.0234375,0.0078125,-0.015625,0.0,0.0,0.0
52244645,41587,0,1.00390625,-0.025390625,0.017578125,-0.0078125,0.0,0.0,0.0
52245895,41588,0,1.005859375,-0.02734375,0.013671875,-0.013671875,0.0,0.0,0.0
52247147,41589,0,0.998046875,-0.03125,0.015625,-0.015625,0.0,0.0,0.0
52248397,41590,0,1.0,-0.029296875,0.015625,-0.013671875,0.0,0.0,0.0
52249649,41591,0,0.998046875,-0.0234375,0.015625,-0.0078125,0.0,0.0,0.0
52250899,41592,0,1.0078125,-0.02734375,0.01171875,-0.015625,0.0,0.0,0.0
52252149,41593,0,1.0078125,-0.02734375,0.01171875,-0.015625,0.0,0.0,0.0
52253399,41594,0,1.005859375,-0.01953125,0.01171875,-0.0078125,0.0,0.0,0.0
52254650,41595,0,1.00390625,-0.021484375,0.01171875,-0.009765625,0.0,0.0,0.0
52255902,41596,0,1.0078125,-0.02734375,0.009765625,-0.017578125,0.0,0.0,0.0
52257153,41597,0,1.00390625,-0.021484375,0.015625,-0.005859375,0.0,0.0,0.0
52258404,41598,0,1.0,-0.021484375,0.017578125,-0.00390625,0.0,0.0,0.0
52259654,41599,0,1.0078125,-0.029296875,0.015625,-0.013671875,0.0,0.0,0.0
52260904,41600,0,0.998046875,-0.029296875,0.01953125,-0.009765625,0.0,0.0,0.0
52262155,41601,0,0.99609375,-0.029296875,0.0078125,-0.021484375,0.0,0.0,0.0
52263407,41602,0,1.001953125,-0.029296875,0.015625,-0.013671875,0.0,0.0,0.0
52264657,41603,0,1.00390625,-0.029296875,0.01171875,-0.017578125,0.0,0.0,0.0
52265909,41604,0,1.001953125,-0.025390625,0.017578125,-0.0078125,0.0,0.0,0.0
52267159,41605,0,1.005859375,-0.029296875,0.015625,-0.013671875,0.0,0.0,0.0
52268409,41606,0,1.005859375,-0.021484375,0.017578125,-0.00390625,0.0,0.0,0.0
52269661,41607,0,1.001953125,-0.02734375,0.013671875,-0.013671875,0.0,0.0,0.0
52270911,41608,0,1.005859375,-0.0234375,0.01953125,-0.00390625,0.0,0.0,0.0
52272161,41609,0,1.00390625,-0.02734375,0.015625,-0.01171875,0.0,0.0,0.0
52273411,41610,0,1.001953125,-0.0234375,0.01171875,-0.01171875,0.0,0.0,0.0
52274663,41611,0,1.001953125,-0.025390625,0.017578125,-0.0078125,0.0,0.0,0.0
52275913,41612,0,1.001953125,-0.029296875,0.01171875,-0.017578125,0.0,0.0,0.0
52277164,41613,0,1.001953125,-0.029296875,0.01171875,-0.017578125,0.0,0.0,0.0
52278415,41614,0,1.001953125,-0.033203125,0.0078125,-0.025390625,0.0,0.0,0.0
52279666,41615,0,1.005859375,-0.033203125,0.017578125,-0.015625,0.0,0.0,0.0
52280916,41616,0,1.00390625,-0.03125,0.009765625,-0.021484375,0.0,0.0,0.0
52282167,41617,0,1.0,-0.025390625,0.02734375,0.001953125,0.0,0.0,0.0
52283417,41618,0,0.99609375,-0.03125,0.01953125,-0.01171875,0.0,0.0,0.0
52284668,41619,0,1.001953125,-0.02734375,0.01953125,-0.0078125,0.0,0.0,0.0
52285920,41620,0,1.00390625,-0.025390625,0.0234375,-0.001953125,0.0,0.0,0.0
52287171,41621,0,1.0,-0.021484375,0.013671875,-0.0078125,0.0,0.0,0.0
52288421,41622,0,1.00390625,-0.025390625,0.0078125,-0.017578125,0.0,0.0,0.0
52289672,41623,0,1.001953125,-0.029296875,0.01953125,-0.009765625,0.0,0.0,0.0
52290924,41624,0,1.00390625,-0.029296875,0.01953125,-0.009765625,0.0,0.0,0.0
52292174,41625,0,1.001953125,-0.02734375,0.0078125,-0.01953125,0.0,0.0,0.0
52293425,41626,0,1.001953125,-0.029296875,0.015625,-0.013671875,0.0,0.0,0.0
52294677,41627,0,1.00390625,-0.0234375,0.017578125,-0.005859375,0.0,0.0,0.0
52295927,41628,0,1.001953125,-0.029296875,0.015625,-0.013671875,0.0,0.0,0.0
52297177,41629,0,1.001953125,-0.025390625,0.0078125,-0.017578125,0.0,0.0,0.0
52298429,41630,0,1.005859375,-0.025390625,0.01171875,-0.013671875,0.0,0.0,0.0
52299679,41631,0,1.009765625,-0.02734375,0.01171875,-0.015625,0.0,0.0,0.0
52300931,41632,0,1.00390625,-0.02734375,0.0234375,-0.00390625,0.0,0.0,0.0
52302181,41633,0,1.00390625,-0.02734375,0.013671875,-0.013671875,0.0,0.0,0.0
52303431,41634,0,1.015625,-0.025390625,0.015625,-0.009765625,0.0,0.0,0.0
52304683,41635,0,1.001953125,-0.029296875,0.017578125,-0.01171875,0.0,0.0,0.0
52305933,41636,0,1.001953125,-0.029296875,0.01171875,-0.017578125,0.0,0.0,0.0
52307183,41637,0,1.001953125,-0.025390625,0.017578125,-0.0078125,0.0,0.0,0.0
52308434,41638,0,1.00390625,-0.0234375,0.013671875,-0.009765625,0.0,0.0,0.0
52309685,41639,0,1.00390625,-0.0234375,0.01171875,-0.01171875,0.0,0.0,0.0
52310936,41640,0,1.00390625,-0.025390625,0.01171875,-0.013671875,0.0,0.0,0.0
52312186,41641,0,1.0,-0.021484375,0.015625,-0.005859375,0.0,0.0,0.0
52313437,41642,0,1.0078125,-0.0234375,0.015625,-0.0078125,0.0,0.0,0.0
52314687,41643,0,1.005859375,-0.02734375,0.01171875,-0.015625,0.0,0.0,0.0
52315937,41644,0,1.001953125,-0.02734375,0.013671875,-0.013671875,0.0,0.0,0.0
52317188,41645,0,1.001953125,-0.029296875,0.009765625,-0.01953125,0.0,0.0,0.0
52318440,41646,0,1.0,-0.025390625,0.017578125,-0.0078125,0.0,0.0,0.0
52319690,41647,0,1.0078125,-0.02734375,0.009765625,-0.017578125,0.0,0.0,0.0
52320942,41648,0,0.998046875,-0.025390625,0.015625,-0.009765625,0.0,0.0,0.0
52322193,41649,0,0.998046875,-0.0234375,0.009765625,-0.013671875,0.0,0.0,0.0
52323445,41650,0,1.001953125,-0.02734375,0.017578125,-0.009765625,0.0,0.0,0.0
52324695,41651,0,1.005859375,-0.021484375,0.01953125,-0.001953125,0.0,0.0,0.0
52325947,41652,0,1.0,-0.0234375,0.013671875,-0.009765625,0.0,0.0,0.0
52327198,41653,0,1.005859375,-0.0234375,0.015625,-0.0078125,0.0,0.0,0.0
52328450,41654,0,1.0078125,-0.0234375,0.017578125,-0.005859375,0.0,0.0,0.0
52329700,41655,0,1.00390625,-0.0234375,0.015625,-0.0078125,0.0,0.0,0.0
52330952,41656,0,1.0078125,-0.02734375,0.017578125,-0.009765625,0.0,0.0,0.0
52332203,41657,0,1.001953125,-0.025390625,0.0078125,-0.017578125,0.0,0.0,0.0
52333454,41658,0,1.005859375,-0.0234375,0.017578125,-0.005859375,0.0,0.0,0.0
52334705,41659,0,1.009765625,-0.02734375,0.013671875,-0.013671875,0.0,0.0,0.0
52335957,41660,0,1.009765625,-0.029296875,0.013671875,-0.015625,0.0,0.0,0.0
52337207,41661,0,0.998046875,-0.0234375,0.015625,-0.0078125,0.0,0.0,0.0
52338459,41662,0,1.001953125,-0.029296875,0.021484375,-0.0078125,0.0,0.0,0.0
52339709,41663,0,1.005859375,-0.029296875,0.01953125,-0.009765625,0.0,0.0,0.0
52340959,41664,0,1.001953125,-0.0234375,0.01171875,-0.01171875,0.0,0.0,0.0
52342209,41665,0,1.005859375,-0.02734375,0.017578125,-0.009765625,0.0,0.0,0.0
52343459,41666,0,1.0078125,-0.03125,0.01171875,-0.01953125,0.0,0.0,0.0
52344711,41667,0,1.0078125,-0.0234375,0.013671875,-0.009765625,0.0,0.0,0.0
52345961,41668,0,1.0078125,-0.025390625,0.017578125,-0.0078125,0.0,0.0,0.0
52347213,41669,0,1.005859375,-0.02734375,0.017578125,-0.009765625,0.0,0.0,0.0
52348464,41670,0,0.99609375,-0.02734375,0.017578125,-0.009765625,0.0,0.0,0.0
52349715,41671,0,1.001953125,-0.03125,0.01171875,-0.01953125,0.0,0.0,0.0
52350966,41672,0,1.0078125,-0.0234375,0.021484375,-0.001953125,0.0,0.0,0.0
52352216,41673,0,1.001953125,-0.03125,0.01171875,-0.01953125,0.0,0.0,0.0
52353467,41674,0,1.001953125,-0.025390625,0.013671875,-0.01171875,0.0,0.0,0.0
52354718,41675,0,1.005859375,-0.02734375,0.0078125,-0.01953125,0.0,0.0,0.0
52355968,41676,0,1.01171875,-0.0234375,0.017578125,-0.005859375,0.0,0.0,0.0
52357219,41677,0,1.0078125,-0.029296875,0.017578125,-0.01171875,0.0,0.0,0.0
52358470,41678,0,1.0,-0.025390625,-0.0234375,-0.048828125,0.0,0.0,0.0
52359721,41679,0,1.0078125,-0.03515625,0.015625,-0.01953125,0.0,0.0,0.0
52360971,41680,0,1.00390625,-0.021484375,0.013671875,-0.0078125,0.0,0.0,0.0
52362223,41681,0,1.0078125,-0.021484375,0.015625,-0.005859375,0.0,0.0,0.0
52363473,41682,0,1.001953125,-0.02734375,0.017578125,-0.009765625,0.0,0.0,0.0
52364723,41683,0,0.998046875,-0.03125,0.009765625,-0.021484375,0.0,0.0,0.0
52365975,41684,0,1.00390625,-0.03125,0.013671875,-0.017578125,0.0,0.0,0.0
52367226,41685,0,1.001953125,-0.02734375,0.0078125,-0.01953125,0.0,0.0,0.0
52368476,41686,0,0.994140625,-0.029296875,0.01171875,-0.017578125,0.0,0.0,0.0
52369728,41687,0,1.001953125,-0.02734375,0.01953125,-0.0078125,0.0,0.0,0.0
52370979,41688,0,1.00390625,-0.029296875,0.01953125,-0.009765625,0.0,0.0,0.0
52372229,41689,0,0.998046875,-0.029296875,0.017578125,-0.01171875,0.0,0.0,0.0
52373481,41690,0,1.0078125,-0.025390625,0.017578125,-0.0078125,0.0,0.0,0.0
52374731,41691,0,1.00390625,-0.0234375,0.01953125,-0.00390625,0.0,0.0,0.0
52375981,41692,0,1.001953125,-0.02734375,0.017578125,-0.009765625,0.0,0.0,0.0
52377232,41693,0,1.009765625,-0.025390625,0.015625,-0.009765625,0.0,0.0,0.0
52378483,41694,0,1.00390625,-0.025390625,0.01953125,-0.005859375,0.0,0.0,0.0
52379734,41695,0,1.0,-0.02734375,0.01953125,-0.0078125,0.0,0.0,0.0
52380986,41696,0,1.0,-0.029296875,0.0234375,-0.005859375,0.0,0.0,0.0
52382236,41697,0,0.998046875,-0.021484375,0.0078125,-0.013671875,0.0,0.0,0.0
52383486,41698,0,0.998046875,-0.02734375,0.01953125,-0.0078125,0.0,0.0,0.0
52384737,41699,0,0.998046875,-0.02734375,0.017578125,-0.009765625,0.0,0.0,0.0
52385987,41700,0,1.00390625,-0.033203125,0.013671875,-0.01953125,0.0,0.0,0.0
52387238,41701,0,1.021484375,-0.025390625,0.021484375,-0.00390625,0.0,0.0,0.0
52388489,41702,0,1.005859375,-0.033203125,0.01171875,-0.021484375,0.0,0.0,0.0
52389740,41703,0,0.994140625,-0.02734375,0.0234375,-0.00390625,0.0,0.0,0.0
52390991,41704,0,0.994140625,-0.03125,0.015625,-0.015625,0.0,0.0,0.0
52392241,41705,0,1.00390625,-0.02734375,0.017578125,-0.009765625,0.0,0.0,0.0
52393492,41706,0,1.0078125,-0.025390625,0.01953125,-0.005859375,0.0,0.0,0.0
52394744,41707,0,1.0,-0.025390625,0.013671875,-0.01171875,0.0,0.0,0.0
52395994,41708,0,1.00390625,-0.025390625,0.017578125,-0.0078125,0.0,0.0,0.0
52397245,41709,0,1.00390625,-0.0234375,0.01171875,-0.01171875,0.0,0.0,0.0
52398496,41710,0,1.00390625,-0.0234375,0.017578125,-0.005859375,0.0,0.0,0.0
52399747,41711,0,0.998046875,-0.025390625,0.013671875,-0.01171875,0.0,0.0,0.0
52400998,41712,0,1.005859375,-0.02734375,0.015625,-0.01171875,0.0,0.0,0.0
52402249,41713,0,1.005859375,-0.0234375,0.013671875,-0.009765625,0.0,0.0,0.0
52403499,41714,0,1.0078125,-0.029296875,0.017578125,-0.01171875,0.0,0.0,0.0
52404751,41715,0,1.005859375,-0.021484375,0.01171875,-0.009765625,0.0,0.0,0.0
52406002,41716,0,1.001953125,-0.0234375,0.013671875,-0.009765625,0.0,0.0,0.0
52407253,41717,0,1.00390625,-0.02734375,0.021484375,-0.005859375,0.0,0.0,0.0
52408503,41718,0,0.998046875,-0.021484375,0.01171875,-0.009765625,0.0,0.0,0.0
52409755,41719,0,1.009765625,-0.025390625,0.013671875,-0.01171875,0.0,0.0,0.0
52411005,41720,0,1.009765625,-0.02734375,0.013671875,-0.013671875,0.0,0.0,0.0
52412256,41721,0,1.00390625,-0.025390625,0.005859375,-0.01953125,0.0,0.0,0.0
52413506,41722,0,1.0078125,-0.02734375,0.009765625,-0.017578125,0.0,0.0,0.0
52414757,41723,0,0.99609375,-0.02734375,0.009765625,-0.017578125,0.0,0.0,0.0
52416008,41724,0,1.001953125,-0.021484375,0.013671875,-0.0078125,0.0,0.0,0.0
52417258,41725,0,1.017578125,-0.025390625,0.015625,-0.009765625,0.0,0.0,0.0
52418508,41726,0,0.9921875,-0.033203125,0.009765625,-0.0234375,0.0,0.0,0.0
52419759,41727,0,1.0,-0.021484375,0.017578125,-0.00390625,0.0,0.0,0.0
52421009,41728,0,0.990234375,-0.01953125,0.015625,-0.00390625,0.0,0.0,0.0
52422259,41729,0,1.0,-0.0234375,0.013671875,-0.009765625,0.0,0.0,0.0
52423510,41730,0,1.001953125,-0.02734375,0.01953125,-0.0078125,0.0,0.0,0.0
52424762,41731,0,1.021484375,-0.021484375,0.005859375,-0.015625,0.0,0.0,0.0
52426012,41732,0,1.0078125,-0.02734375,0.005859375,-0.021484375,0.0,0.0,0.0
52427271,41733,0,1.009765625,-0.02734375,0.01171875,-0.015625,0.0,0.0,0.0
52428521,41734,0,0.99609375,-0.025390625,0.01953125,-0.005859375,0.0,0.0,0.0
52429773,41735,0,1.0,-0.029296875,0.021484375,-0.0078125,0.0,0.0,0.0
52431023,41736,0,1.001953125,-0.0234375,0.0234375,0.0,0.0,0.0,0.0
52432274,41737,0,1.0,-0.0234375,0.015625,-0.0078125,0.0,0.0,0.0
52433525,41738,0,1.0078125,-0.021484375,0.009765625,-0.01171875,0.0,0.0,0.0
52434776,41739,0,1.00390625,-0.02734375,0.01953125,-0.0078125,0.0,0.0,0.0
52436026,41740,0,1.0078125,-0.0234375,0.017578125,-0.005859375,0.0,0.0,0.0
52437276,41741,0,1.0078125,-0.0234375,0.01171875,-0.01171875,0.0,0.0,0.0
52438527,41742,0,1.005859375,-0.021484375,0.013671875,-0.0078125,0.0,0.0,0.0
52439778,41743,0,1.00390625,-0.0234375,0.015625,-0.0078125,0.0,0.0,0.0
52441029,41744,0,0.99609375,-0.02734375,0.009765625,-0.017578125,0.0,0.0,0.0
52442280,41745,0,1.01171875,-0.029296875,0.01953125,-0.009765625,0.0,0.0,0.0
52443531,41746,0,0.998046875,-0.01953125,0.015625,-0.00390625,0.0,0.0,0.0
52444783,41747,0,1.0078125,-0.029296875,0.015625,-0.013671875,0.0,0.0,0.0
52446034,41748,0,1.009765625,-0.02734375,0.013671875,-0.013671875,0.0,0.0,0.0
52447286,41749,0,1.00390625,-0.02734375,0.015625,-0.01171875,0.0,0.0,0.0
52448537,41750,0,1.0078125,-0.025390625,0.025390625,0.0,0.0,0.0,0.0
52449789,41751,0,0.998046875,-0.03125,0.021484375,-0.009765625,0.0,0.0,0.0
52451039,41752,0,0.998046875,-0.025390625,0.017578125,-0.0078125,0.0,0.0,0.0
52452289,41753,0,1.005859375,-0.02734375,0.01953125,-0.0078125,0.0,0.0,0.0
52453541,41754,0,1.013671875,-0.025390625,0.015625,-0.009765625,0.0,0.0,0.0
52454792,41755,0,1.005859375,-0.025390625,0.021484375,-0.00390625,0.0,0.0,0.0
52456044,41756,0,1.001953125,-0.025390625,0.017578125,-0.0078125,0.0,0.0,0.0
52457294,41757,0,1.0,-0.02734375,0.01953125,-0.0078125,0.0,0.0,0.0
52458544,41758,0,1.0,-0.02734375,0.017578125,-0.009765625,0.0,0.0,0.0
52459795,41759,0,1.00390625,-0.03125,0.017578125,-0.013671875,0.0,0.0,0.0
52461045,41760,0,1.001953125,-0.029296875,0.01953125,-0.009765625,0.0,0.0,0.0
52462295,41761,0,1.009765625,-0.02734375,0.017578125,-0.009765625,0.0,0.0,0.0
52463546,41762,0,1.013671875,-0.029296875,0.01953125,-0.009765625,0.0,0.0,0.0
52464797,41763,0,1.0,-0.0234375,0.01953125,-0.00390625,0.0,0.0,0.0
52466048,41764,0,1.009765625,-0.03125,0.017578125,-0.013671875,0.0,0.0,0.0
52467299,41765,0,1.013671875,-0.02734375,0.021484375,-0.005859375,0.0,0.0,0.0
52468550,41766,0,1.001953125,-0.0234375,0.017578125,-0.005859375,0.0,0.0,0.0
52469800,41767,0,0.998046875,-0.0234375,0.01953125,-0.00390625,0.0,0.0,0.0
52471052,41768,0,1.001953125,-0.025390625,0.017578125,-0.0078125,0.0,0.0,0.0
52472303,41769,0,0.998046875,-0.02734375,0.013671875,-0.013671875,0.0,0.0,0.0
52473554,41770,0,1.00390625,-0.025390625,0.017578125,-0.0078125,0.0,0.0,0.0
52474805,41771,0,1.00390625,-0.02734375,0.017578125,-0.009765625,0.0,0.0,0.0
52476057,41772,0,1.005859375,-0.03125,0.017578125,-0.013671875,0.0,0.0,0.0
52477308,41773,0,1.001953125,-0.025390625,0.015625,-0.009765625,0.0,0.0,0.0
52478560,41774,0,1.0078125,-0.029296875,0.015625,-0.013671875,0.0,0.0,0.0
52479811,41775,0,1.001953125,-0.02734375,0.01171875,-0.015625,0.0,0.0,0.0
52481063,41776,0,1.0,-0.02734375,0.005859375,-0.021484375,0.0,0.0,0.0
52482314,41777,0,1.0,-0.025390625,0.013671875,-0.01171875,0.0,0.0,0.0
52483565,41778,0,1.0078125,-0.029296875,0.01171875,-0.017578125,0.0,0.0,0.0
52484816,41779,0,1.005859375,-0.029296875,0.013671875,-0.015625,0.0,0.0,0.0
52486066,41780,0,1.005859375,-0.02734375,0.017578125,-0.009765625,0.0,0.0,0.0
52487318,41781,0,0.99609375,-0.025390625,0.01171875,-0.013671875,0.0,0.0,0.0
52488569,41782,0,1.0,-0.025390625,0.01171875,-0.013671875,0.0,0.0,0.0
52489819,41783,0,0.998046875,-0.02734375,0.015625,-0.01171875,0.0,0.0,0.0
52491070,41784,0,1.005859375,-0.03125,0.0078125,-0.0234375,0.0,0.0,0.0
52492321,41785,0,1.009765625,-0.025390625,0.009765625,-0.015625,0.0,0.0,0.0
52493572,41786,0,1.015625,-0.017578125,0.0078125,-0.009765625,0.0,0.0,0.0
52494823,41787,0,1.00390625,-0.021484375,0.01953125,-0.001953125,0.0,0.0,0.0
52496074,41788,0,0.998046875,-0.021484375,0.02734375,0.005859375,0.0,0.0,0.0
52497325,41789,0,0.99609375,-0.021484375,0.017578125,-0.00390625,0.0,0.0,0.0
52498575,41790,0,1.01171875,-0.0234375,0.013671875,-0.009765625,0.0,0.0,0.0
52499825,41791,0,0.998046875,-0.025390625,0.0078125,-0.017578125,0.0,0.0,0.0
52501076,41792,0,1.00390625,-0.0234375,0.015625,-0.0078125,0.0,0.0,0.0
52502326,41793,0,1.005859375,-0.02734375,0.0078125,-0.01953125,0.0,0.0,0.0
52503577,41794,0,1.0078125,-0.02734375,0.013671875,-0.013671875,0.0,0.0,0.0
52504828,41795,0,0.998046875,-0.02734375,0.017578125,-0.009765625,0.0,0.0,0.0
52506078,41796,0,1.0,-0.02734375,0.01171875,-0.015625,0.0,0.0,0.0
52507329,41797,0,1.009765625,-0.025390625,0.013671875,-0.01171875,0.0,0.0,0.0
52508581,41798,0,1.0,-0.0234375,0.017578125,-0.005859375,0.0,0.0,0.0
52509833,41799,0,1.005859375,-0.025390625,0.01953125,-0.005859375,0.0,0.0,0.0
52511083,41800,0,1.0,-0.025390625,0.01171875,-0.013671875,0.0,0.0,0.0
52512333,41801,0,1.009765625,-0.0234375,0.013671875,-0.009765625,0.0,0.0,0.0
52513584,41802,0,1.0078125,-0.025390625,0.01953125,-0.005859375,0.0,0.0,0.0
52514835,41803,0,1.00390625,-0.01953125,0.013671875,-0.005859375,0.0,0.0,0.0
52516085,41804,0,1.0,-0.021484375,0.015625,-0.005859375,0.0,0.0,0.0
52517336,41805,0,1.005859375,-0.02734375,0.01953125,-0.0078125,0.0,0.0,0.0
52518587,41806,0,1.005859375,-0.025390625,0.01953125,-0.005859375,0.0,0.0,0.0
52519838,41807,0,1.005859375,-0.0234375,0.009765625,-0.013671875,0.0,0.0,0.0
52521090,41808,0,1.00390625,-0.02734375,0.015625,-0.01171875,0.0,0.0,0.0
52522341,41809,0,1.001953125,-0.02734375,0.01171875,-0.015625,0.0,0.0,0.0
52523592,41810,0,0.994140625,-0.025390625,0.009765625,-0.015625,0.0,0.0,0.0
52524844,41811,0,0.990234375,-0.033203125,0.025390625,-0.0078125,0.0,0.0,0.0
52526095,41812,0,1.0,-0.0234375,0.029296875,0.005859375,0.0,0.0,0.0
52527346,41813,0,1.01171875,-0.029296875,0.01953125,-0.009765625,0.0,0.0,0.0
52528597,41814,0,0.998046875,-0.029296875,0.005859375,-0.0234375,0.0,0.0,0.0
52529849,41815,0,0.998046875,-0.025390625,0.021484375,-0.00390625,0.0,0.0,0.0
52531099,41816,0,1.009765625,-0.025390625,0.013671875,-0.01171875,0.0,0.0,0.0
52532351,41817,0,1.005859375,-0.03125,0.021484375,-0.009765625,0.0,0.0,0.0
52533602,41818,0,1.0,-0.025390625,0.015625,-0.009765625,0.0,0.0,0.0
52534854,41819,0,1.00390625,-0.033203125,0.015625,-0.017578125,0.0,0.0,0.0
52536104,41820,0,1.0078125,-0.02734375,0.01953125,-0.0078125,0.0,0.0,0.0
52537354,41821,0,1.0,-0.029296875,0.009765625,-0.01953125,0.0,0.0,0.0
52538605,41822,0,0.99609375,-0.025390625,0.01171875,-0.013671875,0.0,0.0,0.0
52539855,41823,0,1.0078125,-0.033203125,0.015625,-0.017578125,0.0,0.0,0.0
52541107,41824,0,1.0,-0.03125,0.015625,-0.015625,0.0,0.0,0.0
52542358,41825,0,1.001953125,-0.03125,0.017578125,-0.013671875,0.0,0.0,0.0
52543609,41826,0,1.0078125,-0.02734375,0.017578125,-0.009765625,0.0,0.0,0.0
52544859,41827,0,1.0078125,-0.029296875,0.017578125,-0.01171875,0.0,0.0,0.0
52546111,41828,0,1.00390625,-0.025390625,0.01953125,-0.005859375,0.0,0.0,0.0
52547362,41829,0,1.009765625,-0.021484375,0.013671875,-0.0078125,0.0,0.0,0.0
52548613,41830,0,1.00390625,-0.0234375,0.01953125,-0.00390625,0.0,0.0,0.0
52549865,41831,0,1.0,-0.02734375,0.009765625,-0.017578125,0.0,0.0,0.0
52551115,41832,0,1.001953125,-0.0234375,0.01953125,-0.00390625,0.0,0.0,0.0
52552365,41833,0,1.00390625,-0.029296875,0.009765625,-0.01953125,0.0,0.0,0.0
52553617,41834,0,1.005859375,-0.03125,0.0078125,-0.0234375,0.0,0.0,0.0
52554867,41835,0,1.0,-0.025390625,0.01171875,-0.013671875,0.0,0.0,0.0
52556118,41836,0,1.0078125,-0.0234375,0.013671875,-0.009765625,0.0,0.0,0.0
52557369,41837,0,0.998046875,-0.0234375,0.017578125,-0.005859375,0.0,0.0,0.0
52558620,41838,0,1.0,-0.025390625,0.01953125,-0.005859375,0.0,0.0,0.0
52559871,41839,0,1.005859375,-0.025390625,0.017578125,-0.0078125,0.0,0.0,0.0
52561123,41840,0,1.001953125,-0.025390625,0.01171875,-0.013671875,0.0,0.0,0.0
52562374,41841,0,1.0078125,-0.0234375,0.0234375,0.0,0.0,0.0,0.0
52563624,41842,0,1.001953125,-0.025390625,0.015625,-0.009765625,0.0,0.0,0.0
52564875,41843,0,1.0078125,-0.029296875,0.01171875,-0.017578125,0.0,0.0,0.0
52566125,41844,0,1.0078125,-0.029296875,0.013671875,-0.015625,0.0,0.0,0.0
52567375,41845,0,1.001953125,-0.0234375,0.01171875,-0.01171875,0.0,0.0,0.0
52568626,41846,0,1.0078125,-0.021484375,0.015625,-0.005859375,0.0,0.0,0.0
52569877,41847,0,1.0,-0.025390625,0.015625,-0.009765625,0.0,0.0,0.0
52571129,41848,0,1.0,-0.0234375,0.01171875,-0.01171875,0.0,0.0,0.0
52572380,41849,0,1.00390625,-0.0234375,0.005859375,-0.017578125,0.0,0.0,0.0
52573630,41850,0,0.998046875,-0.025390625,0.013671875,-0.01171875,0.0,0.0,0.0
52574881,41851,0,0.994140625,-0.02734375,0.013671875,-0.013671875,0.0,0.0,0.0
52576133,41852,0,0.998046875,-0.02734375,0.013671875,-0.013671875,0.0,0.0,0.0
52577384,41853,0,1.001953125,-0.025390625,0.013671875,-0.01171875,0.0,0.0,0.0
52578634,41854,0,1.001953125,-0.02734375,0.015625,-0.01171875,0.0,0.0,0.0
52579886,41855,0,1.005859375,-0.0234375,0.017578125,-0.005859375,0.0,0.0,0.0
52581136,41856,0,1.0078125,-0.02734375,0.017578125,-0.009765625,0.0,0.0,0.0
52582386,41857,0,1.0078125,-0.02734375,0.01171875,-0.015625,0.0,0.0,0.0
52583638,41858,0,1.0078125,-0.0234375,0.01171875,-0.01171875,0.0,0.0,0.0
52584888,41859,0,1.005859375,-0.021484375,0.01171875,-0.009765625,0.0,0.0,0.0
52586139,41860,0,1.005859375,-0.02734375,0.0078125,-0.01953125,0.0,0.0,0.0
52587391,41861,0,1.005859375,-0.021484375,0.013671875,-0.0078125,0.0,0.0,0.0
52588641,41862,0,1.00390625,-0.021484375,0.013671875,-0.0078125,0.0,0.0,0.0
52589892,41863,0,1.001953125,-0.021484375,0.013671875,-0.0078125,0.0,0.0,0.0
52591142,41864,0,1.0,-0.02734375,0.017578125,-0.009765625,0.0,0.0,0.0
52592393,41865,0,1.001953125,-0.02734375,0.0078125,-0.01953125,0.0,0.0,0.0
52593645,41866,0,1.00390625,-0.01953125,0.015625,-0.00390625,0.0,0.0,0.0
52594895,41867,0,1.005859375,-0.02734375,0.01171875,-0.015625,0.0,0.0,0.0
52596147,41868,0,1.0,-0.029296875,0.01171875,-0.017578125,0.0,0.0,0.0
52597397,41869,0,1.00390625,-0.02734375,0.015625,-0.01171875,0.0,0.0,0.0
52598649,41870,0,1.005859375,-0.025390625,0.017578125,-0.0078125,0.0,0.0,0.0
52599899,41871,0,1.013671875,-0.021484375,0.01953125,-0.001953125,0.0,0.0,0.0
52601149,41872,0,1.00390625,-0.017578125,0.009765625,-0.0078125,0.0,0.0,0.0
52602399,41873,0,1.013671875,-0.029296875,0.01171875,-0.017578125,0.0,0.0,0.0
52603650,41874,0,1.013671875,-0.03125,0.017578125,-0.013671875,0.0,0.0,0.0
52604902,41875,0,1.013671875,-0.0234375,0.015625,-0.0078125,0.0,0.0,0.0
52606153,41876,0,1.00390625,-0.02734375,0.015625,-0.01171875,0.0,0.0,0.0
52607404,41877,0,1.0,-0.025390625,0.01953125,-0.005859375,0.0,0.0,0.0
52608654,41878,0,1.0078125,-0.0234375,0.017578125,-0.005859375,0.0,0.0,0.0
52609904,41879,0,0.998046875,-0.025390625,0.013671875,-0.01171875,0.0,0.0,0.0
52611155,41880,0,0.998046875,-0.029296875,0.017578125,-0.01171875,0.0,0.0,0.0
52612407,41881,0,0.998046875,-0.02734375,0.015625,-0.01171875,0.0,0.0,0.0
52613657,41882,0,1.001953125,-0.025390625,0.013671875,-0.01171875,0.0,0.0,0.0
52614909,41883,0,1.001953125,-0.025390625,0.01953125,-0.005859375,0.0,0.0,0.0
52616159,41884,0,1.005859375,-0.0234375,0.021484375,-0.001953125,0.0,0.0,0.0
52617409,41885,0,1.001953125,-0.0234375,0.015625,-0.0078125,0.0,0.0,0.0
52618661,41886,0,1.0078125,-0.02734375,0.015625,-0.01171875,0.0,0.0,0.0
52619911,41887,0,1.001953125,-0.025390625,0.013671875,-0.01171875,0.0,0.0,0.0
52621161,41888,0,1.005859375,-0.0234375,0.009765625,-0.013671875,0.0,0.0,0.0
52622411,41889,0,1.005859375,-0.02734375,0.017578125,-0.009765625,0.0,0.0,0.0
52623663,41890,0,1.00390625,-0.02734375,0.017578125,-0.009765625,0.0,0.0,0.0
52624913,41891,0,1.001953125,-0.02734375,0.017578125,-0.009765625,0.0,0.0,0.0
52626164,41892,0,1.00390625,-0.02734375,0.013671875,-0.013671875,0.0,0.0,0.0
52627415,41893,0,1.013671875,-0.033203125,0.009765625,-0.0234375,0.0,0.0,0.0
52628666,41894,0,1.021484375,-0.02734375,0.009765625,-0.017578125,0.0,0.0,0.0
52629916,41895,0,1.005859375,-0.029296875,0.009765625,-0.01953125,0.0,0.0,0.0
52631167,41896,0,1.0,-0.029296875,0.013671875,-0.015625,0.0,0.0,0.0
52632417,41897,0,1.0,-0.025390625,0.013671875,-0.01171875,0.0,0.0,0.0
52633668,41898,0,0.98828125,-0.0234375,0.017578125,-0.005859375,0.0,0.0,0.0
52634920,41899,0,1.005859375,-0.029296875,0.015625,-0.013671875,0.0,0.0,0.0
52636171,41900,0,1.015625,-0.029296875,0.01171875,-0.017578125,0.0,0.0,0.0
52637421,41901,0,1.005859375,-0.029296875,0.01171875,-0.017578125,0.0,0.0,0.0
52638672,41902,0,1.0,-0.0234375,0.01953125,-0.00390625,0.0,0.0,0.0
52639924,41903,0,1.00390625,-0.02734375,0.01171875,-0.015625,0.0,0.0,0.0
52641174,41904,0,1.001953125,-0.02734375,0.017578125,-0.009765625,0.0,0.0,0.0
52642425,41905,0,1.0078125,-0.025390625,0.013671875,-0.01171875,0.0,0.0,0.0
52643677,41906,0,1.005859375,-0.029296875,0.017578125,-0.01171875,0.0,0.0,0.0
52644927,41907,0,1.00390625,-0.029296875,0.01171875,-0.017578125,0.0,0.0,0.0
52646177,41908,0,1.009765625,-0.025390625,0.017578125,-0.0078125,0.0,0.0,0.0
52647429,41909,0,1.0078125,-0.025390625,0.015625,-0.009765625,0.0,0.0,0.0
52648679,41910,0,1.0078125,-0.029296875,0.013671875,-0.015625,0.0,0.0,0.0
52649931,41911,0,1.0078125,-0.02734375,0.01171875,-0.015625,0.0,0.0,0.0
52651181,41912,0,1.001953125,-0.02734375,0.017578125,-0.009765625,0.0,0.0,0.0
52652431,41913,0,1.0078125,-0.02734375,0.017578125,-0.009765625,0.0,0.0,0.0
52653683,41914,0,1.005859375,-0.033203125,0.017578125,-0.015625,0.0,0.0,0.0
52654933,41915,0,1.0078125,-0.021484375,0.015625,-0.005859375,0.0,0.0,0.0
52656183,41916,0,0.998046875,-0.0234375,0.017578125,-0.005859375,0.0,0.0,0.0
52657434,41917,0,1.00390625,-0.025390625,0.0078125,-0.017578125,0.0,0.0,0.0
52658685,41918,0,1.01171875,-0.029296875,0.01953125,-0.009765625,0.0,0.0,0.0
52659936,41919,0,1.00390625,-0.0234375,0.017578125,-0.005859375,0.0,0.0,0.0
52661186,41920,0,1.009765625,-0.029296875,0.015625,-0.013671875,0.0,0.0,0.0
52662437,41921,0,0.99609375,-0.029296875,0.015625,-0.013671875,0.0,0.0,0.0
52663687,41922,0,1.009765625,-0.02734375,0.01953125,-0.0078125,0.0,0.0,0.0
52664937,41923,0,1.005859375,-0.0234375,0.013671875,-0.009765625,0.0,0.0,0.0
52666188,41924,0,1.001953125,-0.021484375,0.013671875,-0.0078125,0.0,0.0,0.0
52667440,41925,0,1.00390625,-0.02734375,0.013671875,-0.013671875,0.0,0.0,0.0
52668690,41926,0,1.0,-0.02734375,0.017578125,-0.009765625,0.0,0.0,0.0
52669942,41927,0,1.001953125,-0.02734375,0.0078125,-0.01953125,0.0,0.0,0.0
52671193,41928,0,1.0,-0.025390625,0.01953125,-0.005859375,0.0,0.0,0.0
52672445,41929,0,1.00390625,-0.029296875,0.013671875,-0.015625,0.0,0.0,0.0
52673695,41930,0,1.0,-0.0234375,0.017578125,-0.005859375,0.0,0.0,0.0
52674947,41931,0,1.0078125,-0.025390625,0.017578125,-0.0078125,0.0,0.0,0.0
52676198,41932,0,1.001953125,-0.021484375,0.015625,-0.005859375,0.0,0.0,0.0
52677450,41933,0,1.0078125,-0.021484375,0.017578125,-0.00390625,0.0,0.0,0.0
52678700,41934,0,1.0078125,-0.0234375,0.013671875,-0.009765625,0.0,0.0,0.0
52679952,41935,0,1.001953125,-0.03125,0.009765625,-0.021484375,0.0,0.0,0.0
52681203,41936,0,1.0078125,-0.029296875,0.00390625,-0.025390625,0.0,0.0,0.0
52682454,41937,0,1.00390625,-0.02734375,0.0078125,-0.01953125,0.0,0.0,0.0
52683705,41938,0,0.998046875,-0.0234375,0.01953125,-0.00390625,0.0,0.0,0.0
52684957,41939,0,1.013671875,-0.021484375,0.013671875,-0.0078125,0.0,0.0,0.0
52686207,41940,0,0.994140625,-0.021484375,0.005859375,-0.015625,0.0,0.0,0.0
52687459,41941,0,0.998046875,-0.025390625,0.0078125,-0.017578125,0.0,0.0,0.0
52688709,41942,0,1.0,-0.025390625,0.01953125,-0.005859375,0.0,0.0,0.0
52689959,41943,0,1.0078125,-0.02734375,0.01953125,-0.0078125,0.0,0.0,0.0
52691209,41944,0,1.009765625,-0.02734375,0.015625,-0.01171875,0.0,0.0,0.0
52692459,41945,0,1.0078125,-0.025390625,0.017578125,-0.0078125,0.0,0.0,0.0
52693711,41946,0,1.0078125,-0.029296875,0.00390625,-0.025390625,0.0,0.0,0.0
52694961,41947,0,1.001953125,-0.025390625,0.017578125,-0.0078125,0.0,0.0,0.0
52696213,41948,0,1.001953125,-0.025390625,0.015625,-0.009765625,0.0,0.0,0.0
52697464,41949,0,1.001953125,-0.025390625,0.021484375,-0.00390625,0.0,0.0,0.0
52698715,41950,0,1.00390625,-0.029296875,0.015625,-0.013671875,0.0,0.0,0.0
52699966,41951,0,1.005859375,-0.029296875,0.01171875,-0.017578125,0.0,0.0,0.0
52701216,41952,0,1.0078125,-0.025390625,0.015625,-0.009765625,0.0,0.0,0.0
52702467,41953,0,1.0078125,-0.02734375,0.021484375,-0.005859375,0.0,0.0,0.0
52703718,41954,0,1.009765625,-0.0234375,0.021484375,-0.001953125,0.0,0.0,0.0
52704968,41955,0,1.00390625,-0.029296875,0.01953125,-0.009765625,0.0,0.0,0.0
52706219,41956,0,1.0,-0.021484375,0.009765625,-0.01171875,0.0,0.0,0.0
52707470,41957,0,0.99609375,-0.02734375,0.013671875,-0.013671875,0.0,0.0,0.0
52708721,41958,0,1.001953125,-0.03125,0.01171875,-0.01953125,0.0,0.0,0.0
52709971,41959,0,1.001953125,-0.025390625,0.00390625,-0.021484375,0.0,0.0,0.0
52711223,41960,0,1.0078125,-0.02734375,0.017578125,-0.009765625,0.0,0.0,0.0
52712473,41961,0,1.00390625,-0.02734375,0.01953125,-0.0078125,0.0,0.0,0.0
52713723,41962,0,1.001953125,-0.029296875,0.015625,-0.013671875,0.0,0.0,0.0
52714975,41963,0,0.998046875,-0.025390625,0.01953125,-0.005859375,0.0,0.0,0.0
52716226,41964,0,0.998046875,-0.029296875,0.00390625,-0.025390625,0.0,0.0,0.0
52717476,41965,0,1.001953125,-0.02734375,0.015625,-0.01171875,0.0,0.0,0.0
52718728,41966,0,1.0078125,-0.025390625,0.013671875,-0.01171875,0.0,0.0,0.0
52719979,41967,0,1.0078125,-0.025390625,0.015625,-0.009765625,0.0,0.0,0.0
52721229,41968,0,0.99609375,-0.0234375,0.013671875,-0.009765625,0.0,0.0,0.0
52722481,41969,0,1.001953125,-0.0234375,0.01953125,-0.00390625,0.0,0.0,0.0
52723731,41970,0,1.00390625,-0.02734375,0.017578125,-0.009765625,0.0,0.0,0.0
52724981,41971,0,1.001953125,-0.025390625,0.013671875,-0.01171875,0.0,0.0,0.0
52726232,41972,0,1.0078125,-0.03125,0.013671875,-0.017578125,0.0,0.0,0.0
52727483,41973,0,1.0,-0.02734375,0.009765625,-0.017578125,0.0,0.0,0.0
52728734,41974,0,1.005859375,-0.025390625,0.013671875,-0.01171875,0.0,0.0,0.0
52729986,41975,0,1.0078125,-0.03125,0.017578125,-0.013671875,0.0,0.0,0.0
52731236,41976,0,1.009765625,-0.02734375,0.017578125,-0.009765625,0.0,0.0,0.0
52732486,41977,0,1.001953125,-0.03125,0.005859375,-0.025390625,0.0,0.0,0.0
52733737,41978,0,1.001953125,-0.029296875,0.021484375,-0.0078125,0.0,0.0,0.0
52734987,41979,0,1.00390625,-0.021484375,0.0078125,-0.013671875,0.0,0.0,0.0
52736238,41980,0,1.005859375,-0.03125,0.01171875,-0.01953125,0.0,0.0,0.0
52737489,41981,0,1.00390625,-0.02734375,0.015625,-0.01171875,0.0,0.0,0.0
52738740,41982,0,1.005859375,-0.0234375,0.013671875,-0.009765625,0.0,0.0,0.0
52739991,41983,0,1.00390625,-0.021484375,0.0,-0.021484375,0.0,0.0,0.0
52741241,41984,0,0.9921875,-0.0234375,0.01953125,-0.00390625,0.0,0.0,0.0
52742492,41985,0,1.0078125,-0.02734375,0.01953125,-0.0078125,0.0,0.0,0.0
52743744,41986,0,1.001953125,-0.03125,0.021484375,-0.009765625,0.0,0.0,0.0
52744994,41987,0,1.005859375,-0.029296875,0.017578125,-0.01171875,0.0,0.0,0.0
52746245,41988,0,1.00390625,-0.02734375,0.017578125,-0.009765625,0.0,0.0,0.0
52747496,41989,0,1.001953125,-0.02734375,0.01171875,-0.015625,0.0,0.0,0.0
52748747,41990,0,1.00390625,-0.029296875,0.015625,-0.013671875,0.0,0.0,0.0
52749998,41991,0,1.00390625,-0.0234375,0.017578125,-0.005859375,0.0,0.0,0.0
52751249,41992,0,1.00390625,-0.029296875,0.01953125,-0.009765625,0.0,0.0,0.0
52752499,41993,0,1.00390625,-0.0234375,0.021484375,-0.001953125,0.0,0.0,0.0
52753751,41994,0,1.001953125,-0.029296875,0.017578125,-0.01171875,0.0,0.0,0.0
52755002,41995,0,1.0078125,-0.02734375,0.017578125,-0.009765625,0.0,0.0,0.0
52756253,41996,0,1.0078125,-0.0234375,0.0078125,-0.015625,0.0,0.0,0.0
52757503,41997,0,1.0078125,-0.02734375,0.009765625,-0.017578125,0.0,0.0,0.0
52758755,41998,0,1.009765625,-0.02734375,0.01953125,-0.0078125,0.0,0.0,0.0
52760005,41999,0,1.005859375,-0.025390625,0.01171875,-0.013671875,0.0,0.0,0.0
52761256,42000,0,1.0,-0.021484375,0.015625,-0.005859375,0.0,0.0,0.0
52762506,42001,0,1.0078125,-0.02734375,0.013671875,-0.013671875,0.0,0.0,0.0
52763757,42002,0,0.998046875,-0.0234375,0.021484375,-0.001953125,0.0,0.0,0.0
52765008,42003,0,1.005859375,-0.025390625,0.01953125,-0.005859375,0.0,0.0,0.0
52766258,42004,0,1.001953125,-0.02734375,0.005859375,-0.021484375,0.0,0.0,0.0
52767508,42005,0,1.001953125,-0.029296875,0.021484375,-0.0078125,0.0,0.0,0.0
52768759,42006,0,1.0078125,-0.02734375,0.013671875,-0.013671875,0.0,0.0,0.0
52770009,42007,0,1.001953125,-0.025390625,0.01953125,-0.005859375,0.0,0.0,0.0
52771259,42008,0,1.0,-0.025390625,0.025390625,0.0,0.0,0.0,0.0
52772510,42009,0,1.005859375,-0.025390625,0.01953125,-0.005859375,0.0,0.0,0.0
52773762,42010,0,1.005859375,-0.025390625,0.017578125,-0.0078125,0.0,0.0,0.0
52775012,42011,0,1.005859375,-0.029296875,0.01171875,-0.017578125,0.0,0.0,0.0
52776271,42012,0,1.001953125,-0.0234375,0.01953125,-0.00390625,0.0,0.0,0.0
52777521,42013,0,1.001953125,-0.0234375,0.01171875,-0.01171875,0.0,0.0,0.0
52778773,42014,0,1.00390625,-0.025390625,0.0078125,-0.017578125,0.0,0.0,0.0
52780023,42015,0,1.001953125,-0.02734375,0.01953125,-0.0078125,0.0,0.0,0.0
52781274,42016,0,1.005859375,-0.029296875,0.017578125,-0.01171875,0.0,0.0,0.0
52782525,42017,0,0.998046875,-0.02734375,0.01953125,-0.0078125,0.0,0.0,0.0
52783776,42018,0,1.00390625,-0.02734375,0.015625,-0.01171875,0.0,0.0,0.0
52785026,42019,0,1.0078125,-0.033203125,0.013671875,-0.01953125,0.0,0.0,0.0
52786276,42020,0,1.001953125,-0.0234375,0.0078125,-0.015625,0.0,0.0,0.0
52787527,42021,0,1.013671875,-0.025390625,0.01171875,-0.013671875,0.0,0.0,0.0
52788778,42022,0,1.001953125,-0.02734375,0.015625,-0.01171875,0.0,0.0,0.0
52790029,42023,0,1.001953125,-0.02734375,0.01171875,-0.015625,0.0,0.0,0.0
52791280,42024,0,1.005859375,-0.025390625,0.013671875,-0.01171875,0.0,0.0,0.0
52792531,42025,0,1.005859375,-0.029296875,0.017578125,-0.01171875,0.0,0.0,0.0
52793783,42026,0,1.001953125,-0.025390625,0.01953125,-0.005859375,0.0,0.0,0.0
52795034,42027,0,1.005859375,-0.0234375,0.01953125,-0.00390625,0.0,0.0,0.0
52796286,42028,0,1.0,-0.025390625,0.013671875,-0.01171875,0.0,0.0,0.0
52797537,42029,0,1.0,-0.02734375,0.01171875,-0.015625,0.0,0.0,0.0
52798789,42030,0,1.001953125,-0.02734375,0.015625,-0.01171875,0.0,0.0,0.0
52800039,42031,0,1.0,-0.0234375,0.01953125,-0.00390625,0.0,0.0,0.0
52801289,42032,0,1.005859375,-0.025390625,0.015625,-0.009765625,0.0,0.0,0.0
52802541,42033,0,1.0078125,-0.029296875,0.013671875,-0.015625,0.0,0.0,0.0
52803792,42034,0,0.998046875,-0.02734375,0.015625,-0.01171875,0.0,0.0,0.0
52805044,42035,0,1.005859375,-0.029296875,0.021484375,-0.0078125,0.0,0.0,0.0
52806294,42036,0,1.005859375,-0.02734375,0.0078125,-0.01953125,0.0,0.0,0.0
52807544,42037,0,1.0078125,-0.0234375,0.0078125,-0.015625,0.0,0.0,0.0
52808795,42038,0,1.001953125,-0.025390625,0.009765625,-0.015625,0.0,0.0,0.0
52810045,42039,0,1.0078125,-0.02734375,0.017578125,-0.009765625,0.0,0.0,0.0
52811295,42040,0,1.0078125,-0.03125,0.015625,-0.015625,0.0,0.0,0.0
52812546,42041,0,1.001953125,-0.0234375,0.021484375,-0.001953125,0.0,0.0,0.0
52813797,42042,0,1.00390625,-0.025390625,0.01953125,-0.005859375,0.0,0.0,0.0
52815048,42043,0,1.0,-0.02734375,0.01171875,-0.015625,0.0,0.0,0.0
52816299,42044,0,1.0,-0.03125,0.01953125,-0.01171875,0.0,0.0,0.0
52817550,42045,0,1.001953125,-0.0234375,0.01953125,-0.00390625,0.0,0.0,0.0
52818800,42046,0,1.0078125,-0.025390625,0.013671875,-0.01171875,0.0,0.0,0.0
52820052,42047,0,0.99609375,-0.02734375,0.009765625,-0.017578125,0.0,0.0,0.0
52821303,42048,0,1.001953125,-0.02734375,0.01171875,-0.015625,0.0,0.0,0.0
52822554,42049,0,1.00390625,-0.025390625,0.013671875,-0.01171875,0.0,0.0,0.0
52823805,42050,0,0.998046875,-0.0234375,0.015625,-0.0078125,0.0,0.0,0.0
52825057,42051,0,1.009765625,-0.025390625,0.015625,-0.009765625,0.0,0.0,0.0
52826308,42052,0,1.005859375,-0.02734375,0.015625,-0.01171875,0.0,0.0,0.0
52827560,42053,0,1.00390625,-0.025390625,0.01171875,-0.013671875,0.0,0.0,0.0
52828811,42054,0,1.0,-0.02734375,0.013671875,-0.013671875,0.0,0.0,0.0
52830063,42055,0,1.005859375,-0.029296875,0.01171875,-0.017578125,0.0,0.0,0.0
52831314,42056,0,1.0078125,-0.025390625,0.015625,-0.009765625,0.0,0.0,0.0
52832565,42057,0,1.0078125,-0.02734375,0.0078125,-0.01953125,0.0,0.0,0.0
52833816,42058,0,1.0078125,-0.0234375,0.017578125,-0.005859375,0.0,0.0,0.0
52835066,42059,0,1.001953125,-0.021484375,0.017578125,-0.00390625,0.0,0.0,0.0
52836318,42060,0,1.00390625,-0.021484375,0.013671875,-0.0078125,0.0,0.0,0.0
52837569,42061,0,1.0,-0.0234375,0.015625,-0.0078125,0.0,0.0,0.0
52838819,42062,0,1.015625,-0.03125,0.017578125,-0.013671875,0.0,0.0,0.0
52840070,42063,0,1.0078125,-0.0234375,0.009765625,-0.013671875,0.0,0.0,0.0
52841321,42064,0,1.0,-0.029296875,0.015625,-0.013671875,0.0,0.0,0.0
52842572,42065,0,1.013671875,-0.02734375,0.009765625,-0.017578125,0.0,0.0,0.0
52843823,42066,0,1.0078125,-0.03125,0.015625,-0.015625,0.0,0.0,0.0
52845074,42067,0,1.00390625,-0.025390625,0.015625,-0.009765625,0.0,0.0,0.0
52846325,42068,0,1.005859375,-0.0234375,0.009765625,-0.013671875,0.0,0.0,0.0
52847575,42069,0,1.0,-0.025390625,0.015625,-0.009765625,0.0,0.0,0.0
52848825,42070,0,1.015625,-0.029296875,0.013671875,-0.015625,0.0,0.0,0.0
52850076,42071,0,1.0078125,-0.02734375,0.015625,-0.01171875,0.0,0.0,0.0
52851326,42072,0,1.001953125,-0.029296875,0.01171875,-0.017578125,0.0,0.0,0.0
52852577,42073,0,1.009765625,-0.02734375,0.009765625,-0.017578125,0.0,0.0,0.0
52853828,42074,0,1.001953125,-0.02734375,0.013671875,-0.013671875,0.0,0.0,0.0
52855078,42075,0,1.009765625,-0.02734375,0.0078125,-0.01953125,0.0,0.0,0.0
52856329,42076,0,1.005859375,-0.021484375,0.015625,-0.005859375,0.0,0.0,0.0
52857581,42077,0,1.00390625,-0.0234375,0.017578125,-0.005859375,0.0,0.0,0.0
52858833,42078,0,1.001953125,-0.02734375,0.01171875,-0.015625,0.0,0.0,0.0
52860083,42079,0,0.998046875,-0.02734375,0.009765625,-0.017578125,0.0,0.0,0.0
52861333,42080,0,1.00390625,-0.021484375,0.015625,-0.005859375,0.0,0.0,0.0
52862584,42081,0,1.005859375,-0.0234375,0.013671875,-0.009765625,0.0,0.0,0.0
52863835,42082,0,1.005859375,-0.03125,0.015625,-0.015625,0.0,0.0,0.0
52865085,42083,0,0.998046875,-0.02734375,0.009765625,-0.017578125,0.0,0.0,0.0
52866336,42084,0,1.0078125,-0.02734375,0.01171875,-0.015625,0.0,0.0,0.0
52867587,42085,0,0.998046875,-0.02734375,0.01171875,-0.015625,0.0,0.0,0.0
52868838,42086,0,0.998046875,-0.029296875,0.017578125,-0.01171875,0.0,0.0,0.0
52870090,42087,0,1.01171875,-0.029296875,0.01171875,-0.017578125,0.0,0.0,0.0
52871341,42088,0,1.0078125,-0.0234375,0.013671875,-0.009765625,0.0,0.0,0.0
52872592,42089,0,1.017578125,-0.025390625,0.015625,-0.009765625,0.0,0.0,0.0
52873844,42090,0,0.998046875,-0.029296875,0.017578125,-0.01171875,0.0,0.0,0.0
52875095,42091,0,0.994140625,-0.029296875,0.017578125,-0.01171875,0.0,0.0,0.0
52876346,42092,0,1.005859375,-0.02734375,0.017578125,-0.009765625,0.0,0.0,0.0
52877597,42093,0,1.00390625,-0.02734375,0.017578125,-0.009765625,0.0,0.0,0.0
52878849,42094,0,1.00390625,-0.025390625,0.01953125,-0.005859375,0.0,0.0,0.0
52880099,42095,0,1.00390625,-0.025390625,0.015625,-0.009765625,0.0,0.0,0.0
52881351,42096,0,1.00390625,-0.025390625,0.01171875,-0.013671875,0.0,0.0,0.0
52882602,42097,0,0.998046875,-0.029296875,0.013671875,-0.015625,0.0,0.0,0.0
52883854,42098,0,1.0078125,-0.0234375,0.0234375,0.0,0.0,0.0,0.0
52885104,42099,0,1.009765625,-0.02734375,0.01953125,-0.0078125,0.0,0.0,0.0
52886354,42100,0,1.005859375,-0.025390625,0.017578125,-0.0078125,0.0,0.0,0.0
52887605,42101,0,1.005859375,-0.0234375,0.017578125,-0.005859375,0.0,0.0,0.0
52888855,42102,0,1.005859375,-0.02734375,0.015625,-0.01171875,0.0,0.0,0.0
52890107,42103,0,1.005859375,-0.025390625,0.01953125,-0.005859375,0.0,0.0,0.0
52891358,42104,0,1.005859375,-0.025390625,0.017578125,-0.0078125,0.0,0.0,0.0
52892609,42105,0,1.005859375,-0.025390625,0.01953125,-0.005859375,0.0,0.0,0.0
52893859,42106,0,0.998046875,-0.03125,0.01953125,-0.01171875,0.0,0.0,0.0
52895111,42107,0,1.0,-0.025390625,0.021484375,-0.00390625,0.0,0.0,0.0
52896362,42108,0,0.99609375,-0.0234375,0.01953125,-0.00390625,0.0,0.0,0.0
52897613,42109,0,1.009765625,-0.029296875,0.01171875,-0.017578125,0.0,0.0,0.0
52898865,42110,0,1.0078125,-0.029296875,0.013671875,-0.015625,0.0,0.0,0.0
52900115,42111,0,1.001953125,-0.025390625,0.015625,-0.009765625,0.0,0.0,0.0
52901365,42112,0,1.001953125,-0.029296875,0.01953125,-0.009765625,0.0,0.0,0.0
