t_us,frame_id,sensor_id,accX,accY,accZ,acc_sum_YZ,magX,magY,magZ
57091867,45462,0,1.00390625,-0.033203125,0.0234375,-0.009765625,0.0,0.0,0.0
57093119,45463,0,1.00390625,-0.029296875,0.021484375,-0.0078125,0.0,0.0,0.0
57094369,45464,0,0.994140625,-0.029296875,0.015625,-0.013671875,0.0,0.0,0.0
57095620,45465,0,0.99609375,-0.03515625,0.025390625,-0.009765625,0.0,0.0,0.0
57096871,45466,0,1.0,-0.03125,0.015625,-0.015625,0.0,0.0,0.0
57098122,45467,0,0.99609375,-0.033203125,0.017578125,-0.015625,0.0,0.0,0.0
57099373,45468,0,1.001953125,-0.033203125,0.01953125,-0.013671875,0.0,0.0,0.0
57100624,45469,0,1.00390625,-0.033203125,0.013671875,-0.01953125,0.0,0.0,0.0
57101875,45470,0,1.0,-0.029296875,0.01953125,-0.009765625,0.0,0.0,0.0
57103125,45471,0,1.001953125,-0.03125,0.021484375,-0.009765625,0.0,0.0,0.0
57104376,45472,0,0.998046875,-0.037109375,0.009765625,-0.02734375,0.0,0.0,0.0
57105628,45473,0,1.001953125,-0.03125,0.01953125,-0.01171875,0.0,0.0,0.0
57106878,45474,0,1.001953125,-0.03515625,0.017578125,-0.017578125,0.0,0.0,0.0
57108129,45475,0,1.00390625,-0.03515625,0.013671875,-0.021484375,0.0,0.0,0.0
57109380,45476,0,1.001953125,-0.029296875,0.01953125,-0.009765625,0.0,0.0,0.0
57110630,45477,0,1.001953125,-0.029296875,0.01953125,-0.009765625,0.0,0.0,0.0
57111881,45478,0,1.005859375,-0.029296875,0.017578125,-0.01171875,0.0,0.0,0.0
57113133,45479,0,1.005859375,-0.03515625,0.017578125,-0.017578125,0.0,0.0,0.0
57114384,45480,0,1.001953125,-0.03125,0.015625,-0.015625,0.0,0.0,0.0
57115634,45481,0,1.013671875,-0.03125,0.017578125,-0.013671875,0.0,0.0,0.0
57116886,45482,0,1.005859375,-0.029296875,0.013671875,-0.015625,0.0,0.0,0.0
57118136,45483,0,1.0,-0.03515625,0.01953125,-0.015625,0.0,0.0,0.0
57119386,45484,0,1.001953125,-0.033203125,0.0234375,-0.009765625,0.0,0.0,0.0
57120638,45485,0,1.01171875,-0.029296875,0.017578125,-0.01171875,0.0,0.0,0.0
57121888,45486,0,1.017578125,-0.029296875,0.0234375,-0.005859375,0.0,0.0,0.0
57123139,45487,0,0.99609375,-0.03515625,0.01953125,-0.015625,0.0,0.0,0.0
57124391,45488,0,1.0,-0.033203125,0.0234375,-0.009765625,0.0,0.0,0.0
57125641,45489,0,1.001953125,-0.03125,0.01953125,-0.01171875,0.0,0.0,0.0
57126892,45490,0,0.998046875,-0.03125,0.015625,-0.015625,0.0,0.0,0.0
57128142,45491,0,1.0,-0.03125,0.0078125,-0.0234375,0.0,0.0,0.0
57129393,45492,0,1.0078125,-0.025390625,0.017578125,-0.0078125,0.0,0.0,0.0
57130645,45493,0,1.009765625,-0.029296875,0.015625,-0.013671875,0.0,0.0,0.0
57131895,45494,0,1.005859375,-0.03125,0.017578125,-0.013671875,0.0,0.0,0.0
57133147,45495,0,0.998046875,-0.029296875,0.01953125,-0.009765625,0.0,0.0,0.0
57134397,45496,0,1.0,-0.033203125,0.01953125,-0.013671875,0.0,0.0,0.0
57135649,45497,0,0.99609375,-0.033203125,0.015625,-0.017578125,0.0,0.0,0.0
57136899,45498,0,1.0,-0.03125,0.01953125,-0.01171875,0.0,0.0,0.0
57138149,45499,0,1.00390625,-0.02734375,0.01171875,-0.015625,0.0,0.0,0.0
57139399,45500,0,1.001953125,-0.03125,0.013671875,-0.017578125,0.0,0.0,0.0
57140650,45501,0,0.998046875,-0.03125,0.021484375,-0.009765625,0.0,0.0,0.0
57141902,45502,0,1.0078125,-0.03515625,0.017578125,-0.017578125,0.0,0.0,0.0
57143153,45503,0,1.0,-0.02734375,0.017578125,-0.009765625,0.0,0.0,0.0
57144404,45504,0,1.00390625,-0.029296875,0.015625,-0.013671875,0.0,0.0,0.0
57145654,45505,0,1.0078125,-0.025390625,0.015625,-0.009765625,0.0,0.0,0.0
57146904,45506,0,0.9921875,-0.0234375,0.01953125,-0.00390625,0.0,0.0,0.0
57148155,45507,0,0.99609375,-0.0234375,0.021484375,-0.001953125,0.0,0.0,0.0
57149407,45508,0,1.009765625,-0.0234375,0.015625,-0.0078125,0.0,0.0,0.0
57150657,45509,0,1.01171875,-0.03125,0.017578125,-0.013671875,0.0,0.0,0.0
57151909,45510,0,0.99609375,-0.03125,0.013671875,-0.017578125,0.0,0.0,0.0
57153159,45511,0,1.001953125,-0.033203125,0.01171875,-0.021484375,0.0,0.0,0.0
57154409,45512,0,1.005859375,-0.03125,0.0234375,-0.0078125,0.0,0.0,0.0
57155661,45513,0,1.005859375,-0.029296875,0.01953125,-0.009765625,0.0,0.0,0.0
57156911,45514,0,1.00390625,-0.029296875,0.015625,-0.013671875,0.0,0.0,0.0
57158161,45515,0,1.0078125,-0.03125,0.013671875,-0.017578125,0.0,0.0,0.0
57159411,45516,0,1.0078125,-0.029296875,0.015625,-0.013671875,0.0,0.0,0.0
57160663,45517,0,1.001953125,-0.033203125,0.013671875,-0.01953125,0.0,0.0,0.0
57161913,45518,0,1.00390625,-0.03125,0.015625,-0.015625,0.0,0.0,0.0
57163164,45519,0,1.005859375,-0.03125,0.017578125,-0.013671875,0.0,0.0,0.0
57164415,45520,0,1.0,-0.03125,0.017578125,-0.013671875,0.0,0.0,0.0
57165666,45521,0,1.005859375,-0.02734375,0.017578125,-0.009765625,0.0,0.0,0.0
57166916,45522,0,1.00390625,-0.03125,0.017578125,-0.013671875,0.0,0.0,0.0
57168167,45523,0,1.00390625,-0.02734375,0.01953125,-0.0078125,0.0,0.0,0.0
57169417,45524,0,1.0078125,-0.02734375,0.017578125,-0.009765625,0.0,0.0,0.0
57170668,45525,0,1.00390625,-0.03515625,0.009765625,-0.025390625,0.0,0.0,0.0
57171920,45526,0,1.013671875,-0.03125,0.015625,-0.015625,0.0,0.0,0.0
57173171,45527,0,1.00390625,-0.029296875,0.01953125,-0.009765625,0.0,0.0,0.0
57174421,45528,0,1.01171875,-0.025390625,0.017578125,-0.0078125,0.0,0.0,0.0
57175672,45529,0,0.99609375,-0.037109375,0.021484375,-0.015625,0.0,0.0,0.0
57176924,45530,0,1.0,-0.029296875,0.021484375,-0.0078125,0.0,0.0,0.0
57178174,45531,0,0.998046875,-0.025390625,0.01953125,-0.005859375,0.0,0.0,0.0
57179425,45532,0,1.001953125,-0.033203125,0.015625,-0.017578125,0.0,0.0,0.0
57180677,45533,0,1.0078125,-0.029296875,0.017578125,-0.01171875,0.0,0.0,0.0
57181927,45534,0,1.001953125,-0.02734375,0.01953125,-0.0078125,0.0,0.0,0.0
57183177,45535,0,1.001953125,-0.029296875,0.01171875,-0.017578125,0.0,0.0,0.0
57184429,45536,0,1.0,-0.033203125,0.021484375,-0.01171875,0.0,0.0,0.0
57185679,45537,0,1.00390625,-0.033203125,0.01953125,-0.013671875,0.0,0.0,0.0
57186931,45538,0,1.001953125,-0.02734375,0.017578125,-0.009765625,0.0,0.0,0.0
57188181,45539,0,1.009765625,-0.02734375,0.015625,-0.01171875,0.0,0.0,0.0
57189431,45540,0,1.0078125,-0.03125,0.021484375,-0.009765625,0.0,0.0,0.0
57190683,45541,0,0.998046875,-0.033203125,0.017578125,-0.015625,0.0,0.0,0.0
57191933,45542,0,1.0078125,-0.033203125,0.013671875,-0.01953125,0.0,0.0,0.0
57193183,45543,0,1.001953125,-0.03125,0.01953125,-0.01171875,0.0,0.0,0.0
57194434,45544,0,1.0,-0.029296875,0.01953125,-0.009765625,0.0,0.0,0.0
57195685,45545,0,0.994140625,-0.029296875,0.01953125,-0.009765625,0.0,0.0,0.0
57196936,45546,0,1.0078125,-0.029296875,0.01953125,-0.009765625,0.0,0.0,0.0
57198186,45547,0,1.0078125,-0.03125,0.00390625,-0.02734375,0.0,0.0,0.0
57199437,45548,0,1.013671875,-0.03125,0.01171875,-0.01953125,0.0,0.0,0.0
57200687,45549,0,1.001953125,-0.0234375,0.029296875,0.005859375,0.0,0.0,0.0
57201937,45550,0,1.001953125,-0.02734375,0.021484375,-0.005859375,0.0,0.0,0.0
57203188,45551,0,0.98828125,-0.03125,0.025390625,-0.005859375,0.0,0.0,0.0
57204440,45552,0,1.001953125,-0.033203125,0.017578125,-0.015625,0.0,0.0,0.0
57205690,45553,0,0.998046875,-0.033203125,0.015625,-0.017578125,0.0,0.0,0.0
57206942,45554,0,1.0078125,-0.033203125,0.009765625,-0.0234375,0.0,0.0,0.0
57208193,45555,0,1.005859375,-0.029296875,0.015625,-0.013671875,0.0,0.0,0.0
57209445,45556,0,1.005859375,-0.029296875,0.01171875,-0.017578125,0.0,0.0,0.0
57210695,45557,0,1.00390625,-0.029296875,0.009765625,-0.01953125,0.0,0.0,0.0
57211947,45558,0,1.0,-0.02734375,0.015625,-0.01171875,0.0,0.0,0.0
57213198,45559,0,1.0,-0.02734375,0.01953125,-0.0078125,0.0,0.0,0.0
57214449,45560,0,1.00390625,-0.029296875,0.013671875,-0.015625,0.0,0.0,0.0
57215700,45561,0,1.01171875,-0.03125,0.01953125,-0.01171875,0.0,0.0,0.0
57216952,45562,0,1.00390625,-0.02734375,0.017578125,-0.009765625,0.0,0.0,0.0
57218203,45563,0,0.99609375,-0.025390625,0.021484375,-0.00390625,0.0,0.0,0.0
57219454,45564,0,1.001953125,-0.02734375,0.017578125,-0.009765625,0.0,0.0,0.0
57220705,45565,0,1.005859375,-0.03125,0.0234375,-0.0078125,0.0,0.0,0.0
57221957,45566,0,1.005859375,-0.0234375,0.005859375,-0.017578125,0.0,0.0,0.0
57223207,45567,0,1.0078125,-0.029296875,0.015625,-0.013671875,0.0,0.0,0.0
57224459,45568,0,1.005859375,-0.03125,0.013671875,-0.017578125,0.0,0.0,0.0
57225709,45569,0,1.001953125,-0.03125,0.02734375,-0.00390625,0.0,0.0,0.0
57226959,45570,0,1.001953125,-0.033203125,0.021484375,-0.01171875,0.0,0.0,0.0
57228209,45571,0,1.015625,-0.03125,0.0078125,-0.0234375,0.0,0.0,0.0
57229459,45572,0,0.998046875,-0.029296875,0.017578125,-0.01171875,0.0,0.0,0.0
57230711,45573,0,1.01171875,-0.0390625,0.021484375,-0.017578125,0.0,0.0,0.0
57231961,45574,0,1.005859375,-0.029296875,0.017578125,-0.01171875,0.0,0.0,0.0
57233213,45575,0,1.0078125,-0.03125,0.01953125,-0.01171875,0.0,0.0,0.0
57234464,45576,0,0.99609375,-0.03125,0.015625,-0.015625,0.0,0.0,0.0
57235715,45577,0,1.005859375,-0.02734375,0.01953125,-0.0078125,0.0,0.0,0.0
57236966,45578,0,1.0,-0.02734375,0.015625,-0.01171875,0.0,0.0,0.0
57238216,45579,0,1.0,-0.03515625,0.0234375,-0.01171875,0.0,0.0,0.0
57239467,45580,0,1.005859375,-0.029296875,0.021484375,-0.0078125,0.0,0.0,0.0
57240718,45581,0,1.00390625,-0.029296875,0.01953125,-0.009765625,0.0,0.0,0.0
57241968,45582,0,1.0078125,-0.033203125,0.01953125,-0.013671875,0.0,0.0,0.0
57243219,45583,0,1.0078125,-0.03125,0.021484375,-0.009765625,0.0,0.0,0.0
57244470,45584,0,1.0,-0.029296875,0.021484375,-0.0078125,0.0,0.0,0.0
57245721,45585,0,1.0,-0.029296875,0.021484375,-0.0078125,0.0,0.0,0.0
57246971,45586,0,1.0078125,-0.03515625,0.01953125,-0.015625,0.0,0.0,0.0
57248223,45587,0,1.005859375,-0.037109375,0.01953125,-0.017578125,0.0,0.0,0.0
57249473,45588,0,1.001953125,-0.03125,0.0234375,-0.0078125,0.0,0.0,0.0
57250723,45589,0,1.005859375,-0.029296875,0.017578125,-0.01171875,0.0,0.0,0.0
57251975,45590,0,1.01171875,-0.029296875,0.017578125,-0.01171875,0.0,0.0,0.0
57253226,45591,0,1.00390625,-0.0390625,0.001953125,-0.037109375,0.0,0.0,0.0
57254476,45592,0,1.0078125,-0.03125,0.017578125,-0.013671875,0.0,0.0,0.0
57255728,45593,0,1.01171875,-0.033203125,0.0234375,-0.009765625,0.0,0.0,0.0
57256979,45594,0,1.00390625,-0.025390625,0.01953125,-0.005859375,0.0,0.0,0.0
57258229,45595,0,1.005859375,-0.033203125,0.015625,-0.017578125,0.0,0.0,0.0
57259481,45596,0,1.00390625,-0.02734375,0.021484375,-0.005859375,0.0,0.0,0.0
57260731,45597,0,1.001953125,-0.03125,0.01171875,-0.01953125,0.0,0.0,0.0
57261981,45598,0,0.998046875,-0.033203125,0.01953125,-0.013671875,0.0,0.0,0.0
57263232,45599,0,1.001953125,-0.03125,0.021484375,-0.009765625,0.0,0.0,0.0
57264483,45600,0,0.99609375,-0.02734375,0.021484375,-0.005859375,0.0,0.0,0.0
57265734,45601,0,1.00390625,-0.02734375,0.017578125,-0.009765625,0.0,0.0,0.0
57266986,45602,0,0.998046875,-0.02734375,0.01953125,-0.0078125,0.0,0.0,0.0
57268236,45603,0,1.005859375,-0.029296875,0.017578125,-0.01171875,0.0,0.0,0.0
57269486,45604,0,1.001953125,-0.03515625,0.017578125,-0.017578125,0.0,0.0,0.0
57270737,45605,0,1.0078125,-0.029296875,0.021484375,-0.0078125,0.0,0.0,0.0
57271987,45606,0,1.00390625,-0.03515625,0.021484375,-0.013671875,0.0,0.0,0.0
57273238,45607,0,1.001953125,-0.029296875,0.017578125,-0.01171875,0.0,0.0,0.0
57274489,45608,0,1.001953125,-0.03515625,0.0234375,-0.01171875,0.0,0.0,0.0
57275740,45609,0,1.00390625,-0.03125,0.0234375,-0.0078125,0.0,0.0,0.0
57276991,45610,0,1.009765625,-0.029296875,0.017578125,-0.01171875,0.0,0.0,0.0
57278241,45611,0,1.009765625,-0.029296875,0.0078125,-0.021484375,0.0,0.0,0.0
57279492,45612,0,1.001953125,-0.029296875,0.0234375,-0.005859375,0.0,0.0,0.0
57280744,45613,0,1.0078125,-0.033203125,0.021484375,-0.01171875,0.0,0.0,0.0
57281994,45614,0,1.0,-0.0234375,0.017578125,-0.005859375,0.0,0.0,0.0
57283245,45615,0,1.005859375,-0.029296875,0.0078125,-0.021484375,0.0,0.0,0.0
57284496,45616,0,1.009765625,-0.037109375,0.017578125,-0.01953125,0.0,0.0,0.0
57285747,45617,0,1.00390625,-0.029296875,0.013671875,-0.015625,0.0,0.0,0.0
57286998,45618,0,1.00390625,-0.03125,0.015625,-0.015625,0.0,0.0,0.0
57288249,45619,0,1.01171875,-0.03125,0.01171875,-0.01953125,0.0,0.0,0.0
57289499,45620,0,1.005859375,-0.03125,0.01953125,-0.01171875,0.0,0.0,0.0
57290751,45621,0,1.001953125,-0.03125,0.01953125,-0.01171875,0.0,0.0,0.0
57292002,45622,0,1.001953125,-0.03125,0.01953125,-0.01171875,0.0,0.0,0.0
57293253,45623,0,1.0078125,-0.029296875,0.017578125,-0.01171875,0.0,0.0,0.0
57294503,45624,0,1.0,-0.033203125,0.015625,-0.017578125,0.0,0.0,0.0
57295755,45625,0,1.009765625,-0.029296875,0.017578125,-0.01171875,0.0,0.0,0.0
57297005,45626,0,1.001953125,-0.03125,0.015625,-0.015625,0.0,0.0,-1.0904310343562429e-08
57299506,45628,0,1.005859375,-0.033203125,0.017578125,-0.015625,0.0,0.0,0.0
57300757,45629,0,1.005859375,-0.03125,0.01953125,-0.01171875,0.0,0.0,0.0
57302008,45630,0,1.0078125,-0.03125,0.01953125,-0.01171875,0.0,0.0,0.0
57303258,45631,0,1.001953125,-0.03125,0.021484375,-0.009765625,0.0,0.0,0.0
57304508,45632,0,1.01171875,-0.02734375,0.013671875,-0.013671875,0.0,0.0,0.0
57305759,45633,0,1.00390625,-0.03515625,0.015625,-0.01953125,0.0,0.0,0.0
57307009,45634,0,1.0,-0.033203125,0.0234375,-0.009765625,0.0,0.0,0.0
57308259,45635,0,1.01171875,-0.03125,0.015625,-0.015625,0.0,0.0,0.0
57309510,45636,0,1.005859375,-0.03125,0.017578125,-0.013671875,0.0,0.0,0.0
57310762,45637,0,1.0,-0.03125,0.017578125,-0.013671875,0.0,0.0,0.0
57312012,45638,0,1.0078125,-0.029296875,0.015625,-0.013671875,0.0,0.0,0.0
57313271,45639,0,1.005859375,-0.03125,0.015625,-0.015625,0.0,0.0,0.0
57314521,45640,0,1.005859375,-0.029296875,0.013671875,-0.015625,0.0,0.0,0.0
57315773,45641,0,1.0,-0.029296875,0.013671875,-0.015625,0.0,0.0,0.0
57317023,45642,0,1.001953125,-0.03125,0.015625,-0.015625,0.0,0.0,0.0
57318274,45643,0,1.001953125,-0.03125,0.017578125,-0.013671875,0.0,0.0,0.0
57319525,45644,0,1.0078125,-0.03125,0.013671875,-0.017578125,0.0,0.0,0.0
57320776,45645,0,1.00390625,-0.033203125,0.013671875,-0.01953125,0.0,0.0,0.0
57322026,45646,0,1.005859375,-0.03125,0.017578125,-0.013671875,0.0,0.0,0.0
57323276,45647,0,1.00390625,-0.033203125,0.01171875,-0.021484375,0.0,0.0,0.0
57324527,45648,0,0.998046875,-0.03125,0.013671875,-0.017578125,0.0,0.0,0.0
57325778,45649,0,1.005859375,-0.03125,0.025390625,-0.005859375,0.0,0.0,0.0
57327029,45650,0,1.00390625,-0.03125,0.021484375,-0.009765625,0.0,0.0,0.0
57328280,45651,0,1.00390625,-0.033203125,0.01953125,-0.013671875,0.0,0.0,0.0
57329531,45652,0,1.009765625,-0.029296875,0.015625,-0.013671875,0.0,0.0,0.0
57330783,45653,0,1.001953125,-0.025390625,0.025390625,0.0,0.0,0.0,0.0
57332034,45654,0,1.00390625,-0.02734375,0.013671875,-0.013671875,0.0,0.0,0.0
57333286,45655,0,1.0,-0.033203125,0.015625,-0.017578125,0.0,0.0,0.0
57334537,45656,0,1.001953125,-0.029296875,0.021484375,-0.0078125,0.0,0.0,0.0
57335789,45657,0,1.0078125,-0.029296875,0.013671875,-0.015625,0.0,0.0,0.0
57337039,45658,0,1.00390625,-0.033203125,0.017578125,-0.015625,0.0,0.0,0.0
57338289,45659,0,1.001953125,-0.03125,0.013671875,-0.017578125,0.0,0.0,0.0
57339541,45660,0,0.998046875,-0.03125,0.021484375,-0.009765625,0.0,0.0,0.0
57340792,45661,0,1.009765625,-0.029296875,0.017578125,-0.01171875,0.0,0.0,0.0
57342044,45662,0,1.0,-0.03515625,0.017578125,-0.017578125,0.0,0.0,0.0
57343294,45663,0,1.00390625,-0.029296875,0.01953125,-0.009765625,0.0,0.0,0.0
57344544,45664,0,1.001953125,-0.029296875,0.015625,-0.013671875,0.0,0.0,0.0
57345795,45665,0,1.00390625,-0.02734375,0.017578125,-0.009765625,0.0,0.0,0.0
57347045,45666,0,1.005859375,-0.03125,0.017578125,-0.013671875,0.0,0.0,0.0
57348295,45667,0,1.0,-0.029296875,0.0234375,-0.005859375,0.0,0.0,0.0
57349546,45668,0,1.005859375,-0.029296875,0.01953125,-0.009765625,0.0,0.0,0.0
57350797,45669,0,1.00390625,-0.025390625,0.01953125,-0.005859375,0.0,0.0,0.0
57352048,45670,0,1.009765625,-0.025390625,0.01953125,-0.005859375,0.0,0.0,0.0
57353299,45671,0,1.00390625,-0.029296875,0.017578125,-0.01171875,0.0,0.0,0.0
57354550,45672,0,1.005859375,-0.02734375,0.021484375,-0.005859375,0.0,0.0,0.0
57355800,45673,0,1.001953125,-0.03125,0.01953125,-0.01171875,0.0,0.0,0.0
57357052,45674,0,1.005859375,-0.0390625,0.01171875,-0.02734375,0.0,0.0,0.0
57358303,45675,0,1.009765625,-0.0234375,0.017578125,-0.005859375,0.0,0.0,0.0
57359554,45676,0,1.005859375,-0.02734375,0.015625,-0.01171875,0.0,0.0,0.0
57360805,45677,0,1.01171875,-0.033203125,0.01953125,-0.013671875,0.0,0.0,0.0
57362057,45678,0,1.001953125,-0.029296875,0.01171875,-0.017578125,0.0,0.0,0.0
57363308,45679,0,1.001953125,-0.033203125,0.013671875,-0.01953125,0.0,0.0,0.0
57364560,45680,0,1.001953125,-0.033203125,0.015625,-0.017578125,0.0,0.0,0.0
57365811,45681,0,1.00390625,-0.03125,0.013671875,-0.017578125,0.0,0.0,0.0
57367063,45682,0,1.00390625,-0.033203125,0.01953125,-0.013671875,0.0,0.0,0.0
57368314,45683,0,1.00390625,-0.03125,0.021484375,-0.009765625,0.0,0.0,0.0
57369565,45684,0,1.00390625,-0.029296875,0.017578125,-0.01171875,0.0,0.0,0.0
57370816,45685,0,1.005859375,-0.03125,0.015625,-0.015625,0.0,0.0,0.0
57372066,45686,0,1.001953125,-0.03125,0.017578125,-0.013671875,0.0,0.0,0.0
57373318,45687,0,1.005859375,-0.03125,0.017578125,-0.013671875,0.0,0.0,0.0
57374569,45688,0,1.0,-0.02734375,0.01953125,-0.0078125,0.0,0.0,0.0
57375819,45689,0,1.0078125,-0.02734375,0.01953125,-0.0078125,0.0,0.0,0.0
57377070,45690,0,1.009765625,-0.033203125,0.01953125,-0.013671875,0.0,0.0,0.0
57378321,45691,0,1.00390625,-0.033203125,0.015625,-0.017578125,0.0,0.0,0.0
57379572,45692,0,1.0078125,-0.033203125,0.015625,-0.017578125,0.0,0.0,0.0
57380823,45693,0,1.0078125,-0.03515625,0.01953125,-0.015625,0.0,0.0,0.0
57382074,45694,0,1.00390625,-0.03125,0.017578125,-0.013671875,0.0,0.0,0.0
57383325,45695,0,1.005859375,-0.03515625,0.005859375,-0.029296875,0.0,0.0,0.0
57384575,45696,0,1.015625,-0.033203125,0.017578125,-0.015625,0.0,0.0,0.0
57385825,45697,0,0.994140625,-0.029296875,0.01953125,-0.009765625,0.0,0.0,0.0
57387076,45698,0,1.001953125,-0.03515625,0.017578125,-0.017578125,0.0,0.0,0.0
57388326,45699,0,1.001953125,-0.03125,0.01953125,-0.01171875,0.0,0.0,0.0
57389577,45700,0,1.0078125,-0.03125,0.01953125,-0.01171875,0.0,0.0,0.0
57390828,45701,0,1.013671875,-0.029296875,0.01953125,-0.009765625,0.0,0.0,0.0
57392078,45702,0,0.99609375,-0.03125,0.021484375,-0.009765625,0.0,0.0,0.0
57393329,45703,0,1.0,-0.037109375,0.013671875,-0.0234375,0.0,0.0,0.0
57394581,45704,0,1.001953125,-0.02734375,0.013671875,-0.013671875,0.0,0.0,0.0
57395833,45705,0,1.0,-0.03515625,0.01953125,-0.015625,0.0,0.0,0.0
57397083,45706,0,1.001953125,-0.033203125,0.01953125,-0.013671875,0.0,0.0,0.0
57398333,45707,0,1.005859375,-0.033203125,0.01953125,-0.013671875,0.0,0.0,0.0
57399584,45708,0,1.001953125,-0.033203125,0.021484375,-0.01171875,0.0,0.0,0.0
57400835,45709,0,1.005859375,-0.033203125,0.025390625,-0.0078125,0.0,0.0,0.0
57402085,45710,0,1.0,-0.033203125,0.01171875,-0.021484375,0.0,0.0,0.0
57403336,45711,0,1.005859375,-0.033203125,0.01953125,-0.013671875,0.0,0.0,0.0
57404587,45712,0,1.001953125,-0.029296875,0.021484375,-0.0078125,0.0,0.0,0.0
57405838,45713,0,1.001953125,-0.033203125,0.01953125,-0.013671875,0.0,0.0,0.0
57407090,45714,0,1.0078125,-0.02734375,0.017578125,-0.009765625,0.0,0.0,0.0
57408341,45715,0,1.0078125,-0.029296875,0.015625,-0.013671875,0.0,0.0,0.0
57409592,45716,0,1.005859375,-0.03125,0.0234375,-0.0078125,0.0,0.0,0.0
57410844,45717,0,1.00390625,-0.033203125,0.01171875,-0.021484375,0.0,0.0,0.0
57412095,45718,0,1.01171875,-0.033203125,0.021484375,-0.01171875,0.0,0.0,0.0
57413346,45719,0,1.009765625,-0.03125,0.013671875,-0.017578125,0.0,0.0,0.0
57414597,45720,0,1.01171875,-0.029296875,0.01953125,-0.009765625,0.0,0.0,0.0
57415849,45721,0,0.99609375,-0.029296875,0.01953125,-0.009765625,0.0,0.0,0.0
57417099,45722,0,1.0,-0.02734375,0.009765625,-0.017578125,0.0,0.0,0.0
57418351,45723,0,1.0,-0.033203125,0.017578125,-0.015625,0.0,0.0,0.0
57419602,45724,0,1.0078125,-0.033203125,0.017578125,-0.015625,0.0,0.0,0.0
57420854,45725,0,1.001953125,-0.033203125,0.017578125,-0.015625,0.0,0.0,0.0
57422104,45726,0,1.001953125,-0.029296875,0.017578125,-0.01171875,0.0,0.0,0.0
57423354,45727,0,1.001953125,-0.03125,0.0234375,-0.0078125,0.0,0.0,0.0
57424605,45728,0,0.99609375,-0.03515625,0.01953125,-0.015625,0.0,0.0,0.0
57425855,45729,0,0.998046875,-0.02734375,0.021484375,-0.005859375,0.0,0.0,0.0
57427107,45730,0,1.001953125,-0.029296875,0.009765625,-0.01953125,0.0,0.0,0.0
57428358,45731,0,1.005859375,-0.033203125,0.017578125,-0.015625,0.0,0.0,0.0
57429609,45732,0,1.00390625,-0.02734375,0.015625,-0.01171875,0.0,0.0,0.0
57430859,45733,0,1.001953125,-0.02734375,0.013671875,-0.013671875,0.0,0.0,0.0
57432111,45734,0,1.005859375,-0.03515625,0.01953125,-0.015625,0.0,0.0,0.0
57433362,45735,0,1.00390625,-0.029296875,0.01953125,-0.009765625,0.0,0.0,0.0
57434613,45736,0,1.005859375,-0.03515625,0.017578125,-0.017578125,0.0,0.0,0.0
57435865,45737,0,1.00390625,-0.03125,0.0234375,-0.0078125,0.0,0.0,0.0
57437115,45738,0,1.0078125,-0.029296875,0.017578125,-0.01171875,0.0,0.0,0.0
57438365,45739,0,1.01171875,-0.025390625,0.00390625,-0.021484375,0.0,0.0,0.0
57439617,45740,0,1.00390625,-0.03125,0.013671875,-0.017578125,0.0,0.0,0.0
57440867,45741,0,1.013671875,-0.01953125,0.01953125,0.0,0.0,0.0,0.0
57442118,45742,0,1.0,-0.02734375,0.01953125,-0.0078125,0.0,0.0,0.0
57443369,45743,0,1.005859375,-0.03125,0.005859375,-0.025390625,0.0,0.0,0.0
57444620,45744,0,1.001953125,-0.029296875,0.013671875,-0.015625,0.0,0.0,0.0
57445871,45745,0,1.01171875,-0.03125,0.015625,-0.015625,0.0,0.0,0.0
57447123,45746,0,1.001953125,-0.029296875,0.015625,-0.013671875,0.0,0.0,0.0
57448374,45747,0,1.001953125,-0.037109375,0.013671875,-0.0234375,0.0,0.0,0.0
57449624,45748,0,1.005859375,-0.03125,0.021484375,-0.009765625,0.0,0.0,0.0
57450875,45749,0,1.001953125,-0.03125,0.0234375,-0.0078125,0.0,0.0,0.0
57452125,45750,0,1.00390625,-0.03125,0.021484375,-0.009765625,0.0,0.0,0.0
57453375,45751,0,1.0,-0.029296875,0.009765625,-0.01953125,0.0,0.0,0.0
57454626,45752,0,1.0,-0.03125,0.01953125,-0.01171875,0.0,0.0,0.0
57455877,45753,0,1.001953125,-0.029296875,0.015625,-0.013671875,0.0,0.0,0.0
57457129,45754,0,1.001953125,-0.029296875,0.01171875,-0.017578125,0.0,0.0,0.0
57458380,45755,0,0.998046875,-0.03125,0.013671875,-0.017578125,0.0,0.0,0.0
57459630,45756,0,1.00390625,-0.03125,0.013671875,-0.017578125,0.0,0.0,0.0
57460881,45757,0,1.005859375,-0.03125,0.01953125,-0.01171875,0.0,0.0,0.0
57462133,45758,0,1.001953125,-0.029296875,0.021484375,-0.0078125,0.0,0.0,0.0
57463384,45759,0,1.0078125,-0.03125,0.01171875,-0.01953125,0.0,0.0,0.0
57464634,45760,0,1.0,-0.03515625,0.013671875,-0.021484375,0.0,0.0,0.0
57465886,45761,0,1.005859375,-0.033203125,0.017578125,-0.015625,0.0,0.0,0.0
57467136,45762,0,1.0078125,-0.03125,0.009765625,-0.021484375,0.0,0.0,0.0
57468386,45763,0,0.998046875,-0.029296875,0.017578125,-0.01171875,0.0,0.0,0.0
57469638,45764,0,1.00390625,-0.03515625,0.015625,-0.01953125,0.0,0.0,0.0
57470888,45765,0,0.998046875,-0.033203125,0.01953125,-0.013671875,0.0,0.0,0.0
57472139,45766,0,1.0078125,-0.029296875,0.01953125,-0.009765625,0.0,0.0,0.0
57473391,45767,0,1.0,-0.03125,0.01953125,-0.01171875,0.0,0.0,0.0
57474641,45768,0,1.00390625,-0.029296875,0.021484375,-0.0078125,0.0,0.0,0.0
57475892,45769,0,0.994140625,-0.03125,0.0234375,-0.0078125,0.0,0.0,0.0
57477142,45770,0,1.0078125,-0.03125,0.017578125,-0.013671875,0.0,0.0,0.0
57478393,45771,0,1.0078125,-0.02734375,0.017578125,-0.009765625,0.0,0.0,0.0
57479645,45772,0,1.001953125,-0.03125,0.01953125,-0.01171875,0.0,0.0,0.0
57480895,45773,0,1.005859375,-0.029296875,0.01953125,-0.009765625,0.0,0.0,0.0
57482147,45774,0,1.0,-0.029296875,0.01953125,-0.009765625,0.0,0.0,0.0
57483397,45775,0,1.001953125,-0.029296875,0.015625,-0.013671875,0.0,0.0,0.0
57484649,45776,0,1.0,-0.029296875,0.017578125,-0.01171875,0.0,0.0,0.0
57485899,45777,0,1.001953125,-0.029296875,0.021484375,-0.0078125,0.0,0.0,0.0
57487149,45778,0,1.0078125,-0.03125,0.021484375,-0.009765625,0.0,0.0,0.0
57488399,45779,0,0.998046875,-0.02734375,0.017578125,-0.009765625,0.0,0.0,0.0
57489650,45780,0,1.009765625,-0.0234375,0.021484375,-0.001953125,0.0,0.0,0.0
57490902,45781,0,1.009765625,-0.029296875,0.0234375,-0.005859375,0.0,0.0,0.0
57492153,45782,0,1.0078125,-0.033203125,0.01953125,-0.013671875,0.0,0.0,0.0
57493404,45783,0,1.00390625,-0.03515625,0.013671875,-0.021484375,0.0,0.0,0.0
57494654,45784,0,0.99609375,-0.029296875,0.021484375,-0.0078125,0.0,0.0,0.0
57495904,45785,0,1.0,-0.03125,0.01171875,-0.01953125,0.0,0.0,0.0
57497155,45786,0,1.009765625,-0.029296875,0.021484375,-0.0078125,0.0,0.0,0.0
57498407,45787,0,0.99609375,-0.02734375,0.013671875,-0.013671875,0.0,0.0,0.0
57499657,45788,0,0.9921875,-0.029296875,0.021484375,-0.0078125,0.0,0.0,0.0
57500909,45789,0,1.00390625,-0.03125,0.01953125,-0.01171875,0.0,0.0,0.0
57502159,45790,0,1.001953125,-0.03125,0.01953125,-0.01171875,0.0,0.0,0.0
57503409,45791,0,0.998046875,-0.033203125,0.017578125,-0.015625,0.0,0.0,0.0
57504661,45792,0,1.0,-0.03125,0.017578125,-0.013671875,0.0,0.0,0.0
57505911,45793,0,1.00390625,-0.02734375,0.01953125,-0.0078125,0.0,0.0,0.0
57507161,45794,0,1.001953125,-0.03515625,0.013671875,-0.021484375,0.0,0.0,0.0
57508411,45795,0,1.005859375,-0.03515625,0.013671875,-0.021484375,0.0,0.0,0.0
57509663,45796,0,1.0078125,-0.02734375,0.01953125,-0.0078125,0.0,0.0,0.0
57510913,45797,0,1.001953125,-0.03515625,0.013671875,-0.021484375,0.0,0.0,0.0
57512164,45798,0,1.00390625,-0.029296875,0.01953125,-0.009765625,0.0,0.0,0.0
57513415,45799,0,1.00390625,-0.029296875,0.013671875,-0.015625,0.0,0.0,0.0
57514666,45800,0,1.001953125,-0.03125,0.021484375,-0.009765625,0.0,0.0,0.0
57515916,45801,0,1.00390625,-0.0390625,0.01953125,-0.01953125,0.0,0.0,0.0
57517167,45802,0,1.0078125,-0.029296875,0.013671875,-0.015625,0.0,0.0,0.0
57518417,45803,0,1.0,-0.03515625,0.015625,-0.01953125,0.0,0.0,0.0
57519668,45804,0,1.013671875,-0.029296875,0.01953125,-0.009765625,0.0,0.0,0.0
57520920,45805,0,1.001953125,-0.02734375,0.017578125,-0.009765625,0.0,0.0,0.0
57522171,45806,0,1.0078125,-0.029296875,0.013671875,-0.015625,0.0,0.0,0.0
57523421,45807,0,1.009765625,-0.02734375,0.021484375,-0.005859375,0.0,0.0,0.0
57524672,45808,0,1.0078125,-0.02734375,0.015625,-0.01171875,0.0,0.0,0.0
57525924,45809,0,1.005859375,-0.03125,0.01171875,-0.01953125,0.0,0.0,0.0
57527174,45810,0,1.00390625,-0.033203125,0.017578125,-0.015625,0.0,0.0,0.0
57528425,45811,0,1.005859375,-0.03125,0.015625,-0.015625,0.0,0.0,0.0
57529677,45812,0,1.005859375,-0.029296875,0.017578125,-0.01171875,0.0,0.0,0.0
57530927,45813,0,1.00390625,-0.03125,0.017578125,-0.013671875,0.0,0.0,0.0
57532177,45814,0,1.009765625,-0.029296875,0.01953125,-0.009765625,0.0,0.0,0.0
57533429,45815,0,1.001953125,-0.03125,0.017578125,-0.013671875,0.0,0.0,0.0
57534679,45816,0,1.0,-0.02734375,0.01171875,-0.015625,0.0,0.0,0.0
57535931,45817,0,0.998046875,-0.03125,0.009765625,-0.021484375,0.0,0.0,0.0
57537181,45818,0,0.998046875,-0.033203125,0.01953125,-0.013671875,0.0,0.0,0.0
57538431,45819,0,1.001953125,-0.03125,0.01953125,-0.01171875,0.0,0.0,0.0
57539683,45820,0,1.00390625,-0.029296875,0.01953125,-0.009765625,0.0,0.0,0.0
57540933,45821,0,1.0078125,-0.03515625,0.01953125,-0.015625,0.0,0.0,0.0
57542183,45822,0,1.0,-0.029296875,0.025390625,-0.00390625,0.0,0.0,0.0
57543434,45823,0,1.017578125,-0.029296875,0.0234375,-0.005859375,0.0,0.0,0.0
57544685,45824,0,0.998046875,-0.02734375,0.009765625,-0.017578125,0.0,0.0,0.0
57545936,45825,0,0.998046875,-0.033203125,0.017578125,-0.015625,0.0,0.0,0.0
57547186,45826,0,1.01953125,-0.0390625,0.013671875,-0.025390625,0.0,0.0,0.0
57548437,45827,0,1.013671875,-0.02734375,0.017578125,-0.009765625,0.0,0.0,0.0
57549687,45828,0,1.0078125,-0.03125,0.013671875,-0.017578125,0.0,0.0,0.0
57550937,45829,0,1.009765625,-0.029296875,0.025390625,-0.00390625,0.0,0.0,0.0
57552188,45830,0,0.99609375,-0.029296875,0.015625,-0.013671875,0.0,0.0,0.0
57553440,45831,0,0.998046875,-0.033203125,0.013671875,-0.01953125,0.0,0.0,0.0
57554690,45832,0,1.00390625,-0.03515625,0.009765625,-0.025390625,0.0,0.0,0.0
57555942,45833,0,1.0,-0.033203125,0.021484375,-0.01171875,0.0,0.0,0.0
57557193,45834,0,1.005859375,-0.029296875,0.013671875,-0.015625,0.0,0.0,0.0
57558445,45835,0,1.0,-0.03125,0.015625,-0.015625,0.0,0.0,0.0
57559695,45836,0,1.001953125,-0.02734375,0.013671875,-0.013671875,0.0,0.0,0.0
57560947,45837,0,1.00390625,-0.033203125,0.013671875,-0.01953125,0.0,0.0,0.0
57562198,45838,0,1.00390625,-0.033203125,0.021484375,-0.01171875,0.0,0.0,0.0
57563450,45839,0,1.0,-0.03125,0.01953125,-0.01171875,0.0,0.0,0.0
57564700,45840,0,0.99609375,-0.03125,0.017578125,-0.013671875,0.0,0.0,0.0
57565952,45841,0,0.998046875,-0.02734375,0.01953125,-0.0078125,0.0,0.0,0.0
57567203,45842,0,1.00390625,-0.029296875,0.015625,-0.013671875,0.0,0.0,0.0
57568454,45843,0,1.005859375,-0.033203125,0.01953125,-0.013671875,0.0,0.0,0.0
57569705,45844,0,1.005859375,-0.02734375,0.025390625,-0.001953125,0.0,0.0,0.0
57570957,45845,0,1.001953125,-0.025390625,0.017578125,-0.0078125,0.0,0.0,0.0
57572207,45846,0,1.009765625,-0.029296875,0.021484375,-0.0078125,0.0,0.0,0.0
57573459,45847,0,1.001953125,-0.03515625,0.013671875,-0.021484375,0.0,0.0,0.0
57574709,45848,0,1.0,-0.03515625,0.015625,-0.01953125,0.0,0.0,0.0
57575959,45849,0,1.001953125,-0.033203125,0.021484375,-0.01171875,0.0,0.0,0.0
57577209,45850,0,1.00390625,-0.033203125,0.01953125,-0.013671875,0.0,0.0,0.0
57578459,45851,0,1.001953125,-0.029296875,0.013671875,-0.015625,0.0,0.0,0.0
57579711,45852,0,0.998046875,-0.03125,0.01953125,-0.01171875,0.0,0.0,0.0
57580961,45853,0,1.005859375,-0.03515625,0.021484375,-0.013671875,0.0,0.0,0.0
57582213,45854,0,1.005859375,-0.033203125,0.017578125,-0.015625,0.0,0.0,0.0
57583464,45855,0,1.005859375,-0.03125,0.015625,-0.015625,0.0,0.0,0.0
57584715,45856,0,1.001953125,-0.033203125,0.013671875,-0.01953125,0.0,0.0,0.0
57585966,45857,0,0.998046875,-0.033203125,0.01953125,-0.013671875,0.0,0.0,0.0
57587216,45858,0,1.0078125,-0.03515625,0.015625,-0.01953125,0.0,0.0,0.0
57588467,45859,0,1.001953125,-0.02734375,0.015625,-0.01171875,0.0,0.0,0.0
57589718,45860,0,1.00390625,-0.033203125,0.013671875,-0.01953125,0.0,0.0,0.0
57590968,45861,0,1.001953125,-0.03125,0.017578125,-0.013671875,0.0,0.0,0.0
57592219,45862,0,1.005859375,-0.03125,0.013671875,-0.017578125,0.0,0.0,0.0
57593470,45863,0,1.001953125,-0.03125,0.013671875,-0.017578125,0.0,0.0,0.0
57594721,45864,0,1.01171875,-0.02734375,0.015625,-0.01171875,0.0,0.0,0.0
57595971,45865,0,1.005859375,-0.03125,0.017578125,-0.013671875,0.0,0.0,0.0
57597223,45866,0,0.998046875,-0.03515625,0.015625,-0.01953125,0.0,0.0,0.0
57598473,45867,0,1.005859375,-0.021484375,0.025390625,0.00390625,0.0,0.0,0.0
57599723,45868,0,1.001953125,-0.03515625,0.01953125,-0.015625,0.0,0.0,0.0
57600975,45869,0,1.0,-0.033203125,0.01953125,-0.013671875,0.0,0.0,0.0
57602226,45870,0,1.013671875,-0.0234375,0.01171875,-0.01171875,0.0,0.0,0.0
57603476,45871,0,0.99609375,-0.03125,0.0234375,-0.0078125,0.0,0.0,0.0
57604728,45872,0,1.00390625,-0.03515625,0.0078125,-0.02734375,0.0,0.0,0.0
57605979,45873,0,1.00390625,-0.02734375,0.021484375,-0.005859375,0.0,0.0,0.0
57607229,45874,0,1.0078125,-0.03125,0.013671875,-0.017578125,0.0,0.0,0.0
57608481,45875,0,1.005859375,-0.033203125,0.015625,-0.017578125,0.0,0.0,0.0
57609731,45876,0,1.001953125,-0.029296875,0.017578125,-0.01171875,0.0,0.0,0.0
57610981,45877,0,1.0,-0.03125,0.0234375,-0.0078125,0.0,0.0,0.0
57612232,45878,0,1.00390625,-0.02734375,0.021484375,-0.005859375,0.0,0.0,0.0
57613483,45879,0,1.0078125,-0.02734375,0.025390625,-0.001953125,0.0,0.0,0.0
57614734,45880,0,1.001953125,-0.02734375,0.021484375,-0.005859375,0.0,0.0,0.0
57615986,45881,0,1.005859375,-0.033203125,0.017578125,-0.015625,0.0,0.0,0.0
57617236,45882,0,1.0,-0.029296875,0.021484375,-0.0078125,0.0,0.0,0.0
57618486,45883,0,1.01171875,-0.03125,0.01953125,-0.01171875,0.0,0.0,0.0
57619737,45884,0,1.00390625,-0.02734375,0.01953125,-0.0078125,0.0,0.0,0.0
57620987,45885,0,1.0078125,-0.02734375,0.021484375,-0.005859375,0.0,0.0,0.0
57622238,45886,0,1.005859375,-0.03125,0.013671875,-0.017578125,0.0,0.0,0.0
57623489,45887,0,1.00390625,-0.03515625,0.0234375,-0.01171875,0.0,0.0,0.0
57624740,45888,0,1.001953125,-0.029296875,0.025390625,-0.00390625,0.0,0.0,0.0
57625991,45889,0,1.015625,-0.037109375,0.025390625,-0.01171875,0.0,0.0,0.0
57627241,45890,0,1.0,-0.03515625,0.0234375,-0.01171875,0.0,0.0,0.0
57628492,45891,0,1.0078125,-0.041015625,0.01953125,-0.021484375,0.0,0.0,0.0
57629744,45892,0,0.990234375,-0.029296875,0.01171875,-0.017578125,0.0,0.0,0.0
57630994,45893,0,1.017578125,-0.029296875,0.005859375,-0.0234375,0.0,0.0,0.0
57632245,45894,0,1.005859375,-0.033203125,0.01953125,-0.013671875,0.0,0.0,0.0
57633496,45895,0,1.00390625,-0.029296875,0.015625,-0.013671875,0.0,0.0,0.0
57634747,45896,0,0.998046875,-0.03125,0.021484375,-0.009765625,0.0,0.0,0.0
57635998,45897,0,1.00390625,-0.029296875,0.01171875,-0.017578125,0.0,0.0,0.0
57637249,45898,0,1.005859375,-0.033203125,0.013671875,-0.01953125,0.0,0.0,0.0
57638499,45899,0,1.00390625,-0.029296875,0.017578125,-0.01171875,0.0,0.0,0.0
57639751,45900,0,1.00390625,-0.033203125,0.01953125,-0.013671875,0.0,0.0,0.0
57641002,45901,0,1.005859375,-0.03125,0.017578125,-0.013671875,0.0,0.0,0.0
57642253,45902,0,1.00390625,-0.03125,0.015625,-0.015625,0.0,0.0,0.0
57643503,45903,0,1.009765625,-0.02734375,0.0234375,-0.00390625,0.0,0.0,0.0
57644755,45904,0,1.00390625,-0.033203125,0.01953125,-0.013671875,0.0,0.0,0.0
57646005,45905,0,1.001953125,-0.03125,0.021484375,-0.009765625,0.0,0.0,0.0
57647256,45906,0,1.009765625,-0.029296875,0.013671875,-0.015625,0.0,0.0,0.0
57648506,45907,0,1.009765625,-0.03125,0.017578125,-0.013671875,0.0,0.0,0.0
57649757,45908,0,1.001953125,-0.033203125,0.013671875,-0.01953125,0.0,0.0,0.0
57651008,45909,0,1.0078125,-0.03515625,0.0234375,-0.01171875,0.0,0.0,0.0
57652258,45910,0,1.00390625,-0.03515625,0.021484375,-0.013671875,0.0,0.0,0.0
57653508,45911,0,1.005859375,-0.029296875,0.01953125,-0.009765625,0.0,0.0,0.0
57654759,45912,0,1.005859375,-0.03515625,0.021484375,-0.013671875,0.0,0.0,0.0
57656009,45913,0,0.99609375,-0.025390625,0.02734375,0.001953125,0.0,0.0,0.0
57657259,45914,0,1.009765625,-0.029296875,0.021484375,-0.0078125,0.0,0.0,0.0
57658510,45915,0,1.001953125,-0.033203125,0.0234375,-0.009765625,0.0,0.0,0.0
57659762,45916,0,1.0,-0.02734375,0.013671875,-0.013671875,0.0,0.0,0.0
57661012,45917,0,1.009765625,-0.029296875,0.021484375,-0.0078125,0.0,0.0,0.0
57662271,45918,0,1.001953125,-0.033203125,0.021484375,-0.01171875,0.0,0.0,0.0
57663521,45919,0,1.0,-0.03125,0.017578125,-0.013671875,0.0,0.0,0.0
57664773,45920,0,0.994140625,-0.029296875,0.021484375,-0.0078125,0.0,0.0,0.0
57666023,45921,0,1.0,-0.03515625,0.017578125,-0.017578125,0.0,0.0,0.0
57667274,45922,0,1.001953125,-0.033203125,0.017578125,-0.015625,0.0,0.0,0.0
57668525,45923,0,1.001953125,-0.033203125,0.013671875,-0.01953125,0.0,0.0,0.0
57669776,45924,0,1.005859375,-0.033203125,0.009765625,-0.0234375,0.0,0.0,0.0
57671026,45925,0,1.0078125,-0.029296875,0.015625,-0.013671875,0.0,0.0,0.0
57672276,45926,0,1.00390625,-0.033203125,0.013671875,-0.01953125,0.0,0.0,0.0
57673527,45927,0,1.00390625,-0.03125,0.01953125,-0.01171875,0.0,0.0,0.0
57674778,45928,0,1.001953125,-0.033203125,0.017578125,-0.015625,0.0,0.0,0.0
57676029,45929,0,1.001953125,-0.037109375,0.015625,-0.021484375,0.0,0.0,0.0
57677280,45930,0,1.00390625,-0.03125,0.02734375,-0.00390625,0.0,0.0,0.0
57678531,45931,0,1.0078125,-0.033203125,0.021484375,-0.01171875,0.0,0.0,0.0
57679783,45932,0,0.99609375,-0.02734375,0.025390625,-0.001953125,0.0,0.0,0.0
57681034,45933,0,1.005859375,-0.03515625,0.01953125,-0.015625,0.0,0.0,0.0
57682286,45934,0,1.015625,-0.025390625,0.017578125,-0.0078125,0.0,0.0,0.0
57683537,45935,0,1.0,-0.029296875,0.017578125,-0.01171875,0.0,0.0,0.0
57684789,45936,0,1.00390625,-0.03515625,0.013671875,-0.021484375,0.0,0.0,0.0
57686039,45937,0,1.001953125,-0.029296875,0.013671875,-0.015625,0.0,0.0,0.0
57687289,45938,0,1.005859375,-0.029296875,0.01953125,-0.009765625,0.0,0.0,0.0
57688541,45939,0,1.00390625,-0.029296875,0.017578125,-0.01171875,0.0,0.0,0.0
57689792,45940,0,1.005859375,-0.03125,0.017578125,-0.013671875,0.0,0.0,0.0
57691044,45941,0,1.00390625,-0.03125,0.015625,-0.015625,0.0,0.0,0.0
57692294,45942,0,1.00390625,-0.02734375,0.015625,-0.01171875,0.0,0.0,0.0
57693544,45943,0,1.0078125,-0.03125,0.01171875,-0.01953125,0.0,0.0,0.0
57694795,45944,0,1.00390625,-0.033203125,0.01171875,-0.021484375,0.0,0.0,0.0
57696045,45945,0,1.001953125,-0.041015625,0.005859375,-0.03515625,0.0,0.0,0.0
57697295,45946,0,1.005859375,-0.044921875,0.0078125,-0.037109375,0.0,0.0,0.0
57698546,45947,0,1.00390625,-0.044921875,0.013671875,-0.03125,0.0,0.0,0.0
57699797,45948,0,1.001953125,-0.037109375,0.0078125,-0.029296875,0.0,0.0,0.0
57701048,45949,0,1.0078125,-0.03515625,0.0234375,-0.01171875,0.0,0.0,0.0
57702299,45950,0,1.0078125,-0.03125,0.0078125,-0.0234375,0.0,0.0,0.0
57703550,45951,0,0.998046875,-0.041015625,0.00390625,-0.037109375,0.0,0.0,0.0
57704800,45952,0,1.005859375,-0.0390625,0.01171875,-0.02734375,0.0,0.0,0.0
57706052,45953,0,1.001953125,-0.052734375,-0.0078125,-0.060546875,0.0,0.0,0.0
57707303,45954,0,1.001953125,-0.037109375,0.0,-0.037109375,0.0,0.0,0.0
57708554,45955,0,1.01171875,-0.02734375,0.029296875,0.001953125,0.0,0.0,0.0
57709805,45956,0,1.009765625,-0.037109375,0.005859375,-0.03125,0.0,0.0,0.0
57711057,45957,0,1.0,-0.041015625,0.013671875,-0.02734375,0.0,0.0,0.0
57712308,45958,0,1.00390625,-0.041015625,0.017578125,-0.0234375,0.0,0.0,0.0
57713560,45959,0,0.99609375,-0.060546875,0.0,-0.060546875,0.0,0.0,0.0
57714811,45960,0,0.99609375,-0.08203125,-0.029296875,-0.111328125,0.0,0.0,0.0
57716063,45961,0,0.98828125,-0.103515625,-0.02734375,-0.130859375,0.0,0.0,0.0
57717314,45962,0,0.66015625,-2.447265625,-0.64453125,-3.091796875,0.0,0.0,0.0
57718565,45963,0,0.72265625,0.009765625,-1.087890625,-1.078125,0.0,0.0,0.0
57719816,45964,0,1.294921875,1.412109375,1.248046875,2.66015625,0.0,0.0,0.0
57721066,45965,0,1.3515625,1.0390625,0.828125,1.8671875,0.0,0.0,0.0
57722318,45966,0,0.98046875,-0.42578125,-0.130859375,-0.556640625,0.0,0.0,0.0
57723569,45967,0,0.697265625,-0.5859375,-0.1953125,-0.78125,0.0,0.0,0.0
57724819,45968,0,1.037109375,-0.357421875,-0.189453125,-0.546875,0.0,0.0,0.0
57726070,45969,0,1.01171875,-0.07421875,-0.03515625,-0.109375,0.0,0.0,0.0
57727321,45970,0,1.041015625,0.046875,0.080078125,0.126953125,0.0,0.0,0.0
57728572,45971,0,0.962890625,0.0390625,0.091796875,0.130859375,0.0,0.0,0.0
57729823,45972,0,1.119140625,-0.119140625,-0.0625,-0.181640625,0.0,0.0,0.0
57731074,45973,0,0.935546875,-0.15625,-0.025390625,-0.181640625,0.0,0.0,0.0
57732325,45974,0,0.94140625,-0.130859375,-0.01953125,-0.150390625,0.0,0.0,0.0
57733575,45975,0,1.021484375,-0.107421875,-0.046875,-0.154296875,0.0,0.0,0.0
57734825,45976,0,1.01953125,-0.064453125,-0.001953125,-0.06640625,0.0,0.0,0.0
57736076,45977,0,0.9453125,-0.173828125,-0.126953125,-0.30078125,0.0,0.0,0.0
57737326,45978,0,1.021484375,-0.34375,-0.13671875,-0.48046875,0.0,0.0,0.0
57738577,45979,0,0.990234375,-0.177734375,-0.02734375,-0.205078125,0.0,0.0,0.0
57739828,45980,0,0.919921875,-0.23828125,-0.103515625,-0.341796875,0.0,0.0,0.0
57741078,45981,0,1.22265625,-0.384765625,0.025390625,-0.359375,0.0,0.0,0.0
57742329,45982,0,0.9375,-0.544921875,-0.154296875,-0.69921875,0.0,0.0,0.0
57743581,45983,0,0.998046875,-0.5703125,-0.205078125,-0.775390625,0.0,0.0,0.0
57744833,45984,0,1.04296875,-0.443359375,-0.158203125,-0.6015625,0.0,0.0,0.0
57746083,45985,0,0.99609375,-0.29296875,-0.1015625,-0.39453125,0.0,0.0,0.0
57747333,45986,0,0.92578125,-0.123046875,-0.04296875,-0.166015625,0.0,0.0,0.0
57748584,45987,0,1.04296875,-0.140625,-0.06640625,-0.20703125,0.0,0.0,0.0
57749835,45988,0,0.99609375,-0.291015625,-0.087890625,-0.37890625,0.0,0.0,0.0
57751085,45989,0,0.943359375,-0.529296875,-0.173828125,-0.703125,0.0,0.0,0.0
57752336,45990,0,1.013671875,-1.251953125,-0.451171875,-1.703125,0.0,0.0,0.0
57753587,45991,0,0.91796875,-3.1015625,-1.115234375,-4.216796875,0.0,0.0,0.0
57754838,45992,0,1.083984375,-2.978515625,-1.4375,-4.416015625,0.0,0.0,0.0
57756090,45993,0,0.7734375,-1.65625,-0.677734375,-2.333984375,0.0,0.0,0.0
57757341,45994,0,1.080078125,-4.0,-1.21875,-5.21875,0.0,0.0,0.0
57758592,45995,0,-0.373046875,-4.0,-4.0,-8.0,0.0,0.0,0.0
57759844,45996,0,1.455078125,-4.0,-3.173828125,-7.173828125,0.0,0.0,0.0
57761095,45997,0,0.54296875,1.603515625,-1.685546875,-0.08203125,0.0,0.0,0.0
57762346,45998,0,1.26953125,3.998046875,0.541015625,4.5390625,0.0,0.0,0.0
57763597,45999,0,1.62109375,3.998046875,1.84765625,5.845703125,0.0,0.0,0.0
57764849,46000,0,1.54296875,3.998046875,3.080078125,7.078125,0.0,0.0,0.0
57766099,46001,0,0.822265625,3.998046875,3.833984375,7.83203125,0.0,0.0,0.0
57767351,46002,0,1.373046875,3.998046875,3.154296875,7.15234375,0.0,0.0,0.0
57768602,46003,0,1.16015625,3.998046875,2.125,6.123046875,0.0,0.0,0.0
57769854,46004,0,0.763671875,2.59765625,1.126953125,3.724609375,0.0,0.0,0.0
57771104,46005,0,1.044921875,-0.373046875,-0.251953125,-0.625,0.0,0.0,0.0
57772354,46006,0,1.3046875,-2.857421875,-1.3125,-4.169921875,0.0,0.0,0.0
57773605,46007,0,0.884765625,-4.0,-1.69140625,-5.69140625,0.0,0.0,0.0
57774855,46008,0,0.740234375,-4.0,-1.8359375,-5.8359375,0.0,0.0,0.0
57776107,46009,0,0.990234375,-4.0,-1.869140625,-5.869140625,0.0,0.0,0.0
57777358,46010,0,0.677734375,-3.70703125,-1.400390625,-5.107421875,0.0,0.0,0.0
57778609,46011,0,0.66796875,-2.060546875,-0.83203125,-2.892578125,0.0,0.0,0.0
57779859,46012,0,1.17578125,-0.29296875,-0.390625,-0.68359375,0.0,0.0,0.0
57781111,46013,0,1.275390625,1.322265625,0.236328125,1.55859375,0.0,0.0,0.0
57782362,46014,0,1.048828125,2.453125,0.80078125,3.25390625,0.0,0.0,0.0
57783613,46015,0,1.216796875,2.8828125,1.0,3.8828125,0.0,0.0,0.0
57784865,46016,0,1.16796875,2.93359375,1.091796875,4.025390625,0.0,0.0,0.0
57786115,46017,0,0.83984375,2.42578125,1.09375,3.51953125,0.0,0.0,0.0
57787365,46018,0,0.91015625,1.564453125,0.74609375,2.310546875,0.0,0.0,0.0
57788617,46019,0,1.134765625,0.548828125,0.21875,0.767578125,0.0,0.0,0.0
57789867,46020,0,0.9375,-0.39453125,-0.423828125,-0.818359375,0.0,0.0,0.0
57791118,46021,0,1.025390625,-1.17578125,-0.669921875,-1.845703125,0.0,0.0,0.0
57792369,46022,0,1.146484375,-1.732421875,-0.63671875,-2.369140625,0.0,0.0,0.0
57793620,46023,0,0.82421875,-1.52734375,-0.4921875,-2.01953125,0.0,0.0,0.0
57794871,46024,0,0.9609375,-1.068359375,-0.3828125,-1.451171875,0.0,0.0,0.0
57796123,46025,0,0.9609375,-0.482421875,-0.197265625,-0.6796875,0.0,0.0,0.0
57797374,46026,0,0.90234375,0.099609375,0.060546875,0.16015625,0.0,0.0,0.0
57798624,46027,0,1.123046875,0.583984375,0.162109375,0.74609375,0.0,0.0,0.0
57799875,46028,0,1.166015625,0.900390625,0.26953125,1.169921875,0.0,0.0,0.0
57801125,46029,0,1.00390625,1.015625,0.404296875,1.419921875,0.0,0.0,0.0
57802375,46030,0,1.03515625,0.923828125,0.390625,1.314453125,0.0,0.0,0.0
57803626,46031,0,1.0546875,0.68359375,0.302734375,0.986328125,0.0,0.0,0.0
57804877,46032,0,0.90234375,0.345703125,0.22265625,0.568359375,0.0,0.0,0.0
57806129,46033,0,0.921875,-0.0078125,0.07421875,0.06640625,0.0,0.0,0.0
57807380,46034,0,1.072265625,-0.318359375,-0.119140625,-0.4375,0.0,0.0,0.0
57808630,46035,0,1.03125,-0.5234375,-0.1953125,-0.71875,0.0,0.0,0.0
57809881,46036,0,1.00390625,-0.611328125,-0.19921875,-0.810546875,0.0,0.0,0.0
57811133,46037,0,1.072265625,-0.568359375,-0.22265625,-0.791015625,0.0,0.0,0.0
57812384,46038,0,0.982421875,-0.431640625,-0.138671875,-0.5703125,0.0,0.0,0.0
57813634,46039,0,0.888671875,-0.228515625,-0.01171875,-0.240234375,0.0,0.0,0.0
57814886,46040,0,0.970703125,-0.025390625,0.01953125,-0.005859375,0.0,0.0,0.0
57816136,46041,0,1.033203125,0.154296875,0.05859375,0.212890625,0.0,0.0,0.0
57817386,46042,0,1.0078125,0.2890625,0.13671875,0.42578125,0.0,0.0,0.0
57818638,46043,0,1.072265625,0.341796875,0.12109375,0.462890625,0.0,0.0,0.0
57819888,46044,0,1.099609375,0.33203125,0.123046875,0.455078125,0.0,0.0,0.0
57821139,46045,0,0.994140625,0.259765625,0.14453125,0.404296875,0.0,0.0,0.0
57822391,46046,0,0.94921875,0.1484375,0.126953125,0.275390625,0.0,0.0,0.0
57823641,46047,0,0.986328125,0.025390625,0.056640625,0.08203125,0.0,0.0,0.0
57824892,46048,0,0.958984375,-0.0859375,0.013671875,-0.072265625,0.0,0.0,0.0
57826142,46049,0,0.986328125,-0.16796875,-0.02734375,-0.1953125,0.0,0.0,0.0
57827393,46050,0,1.0625,-0.208984375,-0.080078125,-0.2890625,0.0,0.0,0.0
57828645,46051,0,1.052734375,-0.205078125,-0.083984375,-0.2890625,0.0,0.0,0.0
57829895,46052,0,0.994140625,-0.166015625,-0.033203125,-0.19921875,0.0,0.0,0.0
57831147,46053,0,0.986328125,-0.103515625,-0.0078125,-0.111328125,0.0,0.0,0.0
57832397,46054,0,0.98046875,-0.033203125,0.0234375,-0.009765625,0.0,0.0,0.0
57833649,46055,0,0.953125,0.03515625,0.06640625,0.1015625,0.0,0.0,0.0
57834899,46056,0,0.998046875,0.080078125,0.060546875,0.140625,0.0,0.0,0.0
57836149,46057,0,1.052734375,0.103515625,0.041015625,0.14453125,0.0,0.0,0.0
57837399,46058,0,1.03125,0.099609375,0.0546875,0.154296875,0.0,0.0,0.0
57838650,46059,0,1.02734375,0.07421875,0.0546875,0.12890625,0.0,0.0,0.0
57839902,46060,0,1.021484375,0.037109375,0.033203125,0.0703125,0.0,0.0,0.0
57841153,46061,0,0.990234375,-0.0078125,0.046875,0.0390625,0.0,0.0,0.0
57842404,46062,0,0.947265625,-0.044921875,0.037109375,-0.0078125,0.0,0.0,0.0
57843654,46063,0,0.9921875,-0.07421875,-0.01953125,-0.09375,0.0,0.0,0.0
57844904,46064,0,1.013671875,-0.09375,-0.015625,-0.109375,0.0,0.0,0.0
57846155,46065,0,1.0,-0.083984375,-0.02734375,-0.111328125,0.0,0.0,0.0
57847407,46066,0,1.04296875,-0.0703125,-0.021484375,-0.091796875,0.0,0.0,0.0
57848657,46067,0,0.98828125,-0.046875,0.01171875,-0.03515625,0.0,0.0,0.0
57849909,46068,0,0.9765625,-0.02734375,0.029296875,0.001953125,0.0,0.0,0.0
57851159,46069,0,1.005859375,-0.017578125,0.029296875,0.01171875,0.0,0.0,0.0
57852409,46070,0,0.96875,-0.00390625,0.029296875,0.025390625,0.0,0.0,0.0
57853661,46071,0,1.009765625,0.009765625,0.03515625,0.044921875,0.0,0.0,0.0
57854911,46072,0,1.037109375,0.001953125,-0.001953125,0.0,0.0,0.0,0.0
57856161,46073,0,1.015625,-0.013671875,0.015625,0.001953125,0.0,0.0,0.0
57857411,46074,0,1.029296875,-0.02734375,0.02734375,0.0,0.0,0.0,0.0
57858663,46075,0,1.013671875,-0.0390625,0.005859375,-0.033203125,0.0,0.0,0.0
57859913,46076,0,0.978515625,-0.046875,0.0078125,-0.0390625,0.0,0.0,0.0
57861164,46077,0,0.978515625,-0.0546875,0.017578125,-0.037109375,0.0,0.0,0.0
57862415,46078,0,0.990234375,-0.052734375,0.0,-0.052734375,0.0,0.0,0.0
57863666,46079,0,1.0234375,-0.04296875,-0.005859375,-0.048828125,0.0,0.0,0.0
57864916,46080,0,1.01953125,-0.046875,0.0,-0.046875,0.0,0.0,0.0
57866167,46081,0,1.009765625,-0.033203125,0.0,-0.033203125,0.0,0.0,0.0
57867417,46082,0,1.04296875,-0.02734375,0.0,-0.02734375,0.0,0.0,0.0
57868668,46083,0,0.98046875,-0.017578125,0.025390625,0.0078125,0.0,0.0,0.0
57869920,46084,0,0.9765625,-0.015625,0.04296875,0.02734375,0.0,0.0,0.0
57871171,46085,0,0.990234375,-0.015625,0.017578125,0.001953125,0.0,0.0,0.0
57872421,46086,0,1.005859375,-0.01953125,0.01953125,0.0,0.0,0.0,0.0
57873672,46087,0,1.01171875,-0.013671875,0.013671875,0.0,0.0,0.0,0.0
57874924,46088,0,1.01171875,-0.01171875,0.009765625,-0.001953125,0.0,0.0,0.0
57876174,46089,0,1.017578125,-0.017578125,0.013671875,-0.00390625,0.0,0.0,0.0
57877425,46090,0,0.9921875,-0.021484375,0.01953125,-0.001953125,0.0,0.0,0.0
57878677,46091,0,0.9921875,-0.01953125,0.021484375,0.001953125,0.0,0.0,0.0
57879927,46092,0,0.998046875,-0.021484375,0.017578125,-0.00390625,0.0,0.0,0.0
57881177,46093,0,0.994140625,-0.01953125,0.0234375,0.00390625,0.0,0.0,0.0
57882429,46094,0,1.001953125,-0.021484375,0.029296875,0.0078125,0.0,0.0,0.0
57883679,46095,0,1.005859375,-0.013671875,0.01953125,0.005859375,0.0,0.0,0.0
57884931,46096,0,1.005859375,-0.01171875,0.021484375,0.009765625,0.0,0.0,0.0
57886181,46097,0,1.00390625,-0.009765625,0.025390625,0.015625,0.0,0.0,0.0
57887431,46098,0,1.01171875,-0.0078125,0.021484375,0.013671875,0.0,0.0,0.0
57888683,46099,0,1.0078125,-0.005859375,0.03125,0.025390625,0.0,0.0,0.0
57889933,46100,0,0.98828125,-0.01171875,0.033203125,0.021484375,0.0,0.0,0.0
57891183,46101,0,1.001953125,-0.0078125,0.021484375,0.013671875,0.0,0.0,0.0
57892434,46102,0,1.009765625,-0.01953125,0.015625,-0.00390625,0.0,0.0,0.0
57893685,46103,0,1.009765625,-0.01953125,0.0234375,0.00390625,0.0,0.0,0.0
57894936,46104,0,1.01953125,-0.01171875,0.01953125,0.0078125,0.0,0.0,0.0
57896186,46105,0,1.025390625,-0.015625,0.017578125,0.001953125,0.0,0.0,0.0
57897437,46106,0,0.998046875,-0.021484375,0.01953125,-0.001953125,0.0,0.0,0.0
57898687,46107,0,0.99609375,-0.01953125,0.013671875,-0.005859375,0.0,0.0,0.0
57899937,46108,0,1.0078125,-0.025390625,0.0234375,-0.001953125,0.0,0.0,0.0
57901188,46109,0,0.998046875,-0.02734375,0.01953125,-0.0078125,0.0,0.0,0.0
57902440,46110,0,1.01171875,-0.02734375,0.013671875,-0.013671875,0.0,0.0,0.0
57903690,46111,0,1.009765625,-0.025390625,0.017578125,-0.0078125,0.0,0.0,0.0
57904942,46112,0,0.998046875,-0.0234375,0.017578125,-0.005859375,0.0,0.0,0.0
57906193,46113,0,0.998046875,-0.03125,0.021484375,-0.009765625,0.0,0.0,0.0
57907445,46114,0,0.998046875,-0.029296875,0.01953125,-0.009765625,0.0,0.0,0.0
57908695,46115,0,0.998046875,-0.033203125,0.017578125,-0.015625,0.0,0.0,0.0
57909947,46116,0,1.00390625,-0.03515625,0.015625,-0.01953125,0.0,0.0,0.0
57911198,46117,0,1.005859375,-0.037109375,0.0078125,-0.029296875,0.0,0.0,0.0
57912450,46118,0,0.99609375,-0.03515625,0.017578125,-0.017578125,0.0,0.0,0.0
57913700,46119,0,0.99609375,-0.037109375,0.015625,-0.021484375,0.0,0.0,0.0
57914952,46120,0,1.005859375,-0.03515625,0.013671875,-0.021484375,0.0,0.0,0.0
57916203,46121,0,0.998046875,-0.03125,0.013671875,-0.017578125,0.0,0.0,0.0
57917454,46122,0,1.0,-0.033203125,0.013671875,-0.01953125,0.0,0.0,0.0
57918705,46123,0,1.00390625,-0.037109375,0.009765625,-0.02734375,0.0,0.0,0.0
57919957,46124,0,1.001953125,-0.037109375,0.0,-0.037109375,0.0,0.0,0.0
57921207,46125,0,0.998046875,-0.033203125,0.005859375,-0.02734375,0.0,0.0,0.0
57922459,46126,0,1.017578125,-0.037109375,0.01171875,-0.025390625,0.0,0.0,0.0
57923709,46127,0,1.0,-0.033203125,0.0078125,-0.025390625,0.0,0.0,0.0
57924959,46128,0,1.0,-0.03125,0.015625,-0.015625,0.0,0.0,0.0
57926209,46129,0,1.005859375,-0.03515625,0.0078125,-0.02734375,0.0,0.0,0.0
57927459,46130,0,1.00390625,-0.037109375,0.009765625,-0.02734375,0.0,0.0,0.0
57928711,46131,0,1.0,-0.03515625,0.01171875,-0.0234375,0.0,0.0,0.0
57929961,46132,0,1.0,-0.033203125,0.01171875,-0.021484375,0.0,0.0,0.0
57931213,46133,0,1.001953125,-0.03125,0.005859375,-0.025390625,0.0,0.0,0.0
57932464,46134,0,1.00390625,-0.029296875,0.01171875,-0.017578125,0.0,0.0,0.0
57933715,46135,0,1.00390625,-0.025390625,0.01171875,-0.013671875,0.0,0.0,0.0
57934966,46136,0,1.005859375,-0.025390625,0.0078125,-0.017578125,0.0,0.0,0.0
57936216,46137,0,1.00390625,-0.0234375,0.009765625,-0.013671875,0.0,0.0,0.0
57937467,46138,0,1.001953125,-0.025390625,0.009765625,-0.015625,0.0,0.0,0.0
57938718,46139,0,1.00390625,-0.025390625,0.009765625,-0.015625,0.0,0.0,0.0
57939968,46140,0,1.005859375,-0.021484375,0.0078125,-0.013671875,0.0,0.0,0.0
57941219,46141,0,1.001953125,-0.01953125,0.01171875,-0.0078125,0.0,0.0,0.0
57942470,46142,0,1.00390625,-0.025390625,0.017578125,-0.0078125,0.0,0.0,0.0
57943721,46143,0,1.0078125,-0.025390625,0.009765625,-0.015625,0.0,0.0,0.0
57944971,46144,0,1.0,-0.01953125,0.01953125,0.0,0.0,0.0,0.0
57946223,46145,0,1.005859375,-0.01953125,0.017578125,-0.001953125,0.0,0.0,0.0
57947473,46146,0,1.0,-0.01953125,0.01171875,-0.0078125,0.0,0.0,0.0
57948723,46147,0,1.009765625,-0.01953125,0.01171875,-0.0078125,0.0,0.0,0.0
57949975,46148,0,1.009765625,-0.01953125,0.001953125,-0.017578125,0.0,0.0,0.0
57951226,46149,0,1.00390625,-0.01953125,0.017578125,-0.001953125,0.0,0.0,0.0
57952476,46150,0,1.009765625,-0.017578125,0.013671875,-0.00390625,0.0,0.0,0.0
57953728,46151,0,1.0078125,-0.017578125,0.015625,-0.001953125,0.0,0.0,0.0
57954979,46152,0,1.005859375,-0.015625,0.01953125,0.00390625,0.0,0.0,0.0
57956229,46153,0,1.005859375,-0.01953125,0.01953125,0.0,0.0,0.0,0.0
57957481,46154,0,0.994140625,-0.01953125,0.021484375,0.001953125,0.0,0.0,0.0
57958731,46155,0,1.00390625,-0.017578125,0.017578125,0.0,0.0,0.0,0.0
57959981,46156,0,1.001953125,-0.017578125,0.0234375,0.005859375,0.0,0.0,0.0
57961232,46157,0,1.00390625,-0.015625,0.021484375,0.005859375,0.0,0.0,0.0
57962483,46158,0,1.001953125,-0.017578125,0.017578125,0.0,0.0,0.0,0.0
57963734,46159,0,1.0078125,-0.015625,0.0234375,0.0078125,0.0,0.0,0.0
57964986,46160,0,0.998046875,-0.01953125,0.021484375,0.001953125,0.0,0.0,0.0
57966236,46161,0,1.005859375,-0.015625,0.021484375,0.005859375,0.0,0.0,0.0
57967486,46162,0,1.001953125,-0.01953125,0.017578125,-0.001953125,0.0,0.0,0.0
57968737,46163,0,1.0,-0.021484375,0.01953125,-0.001953125,0.0,0.0,0.0
57969987,46164,0,1.0078125,-0.0234375,0.017578125,-0.005859375,0.0,0.0,0.0
57971238,46165,0,1.0,-0.0234375,0.013671875,-0.009765625,0.0,0.0,0.0
57972489,46166,0,1.005859375,-0.03125,0.009765625,-0.021484375,0.0,0.0,0.0
57973740,46167,0,1.005859375,-0.0234375,0.021484375,-0.001953125,0.0,0.0,0.0
57974991,46168,0,1.005859375,-0.025390625,0.025390625,0.0,0.0,0.0,0.0
57976241,46169,0,1.001953125,-0.02734375,0.0234375,-0.00390625,0.0,0.0,0.0
57977492,46170,0,1.001953125,-0.029296875,0.01953125,-0.009765625,0.0,0.0,0.0
57978744,46171,0,0.998046875,-0.02734375,0.013671875,-0.013671875,0.0,0.0,0.0
57979994,46172,0,1.001953125,-0.03125,0.005859375,-0.025390625,0.0,0.0,0.0
57981245,46173,0,1.0,-0.025390625,0.009765625,-0.015625,0.0,0.0,0.0
57982496,46174,0,1.00390625,-0.029296875,0.015625,-0.013671875,0.0,0.0,0.0
57983747,46175,0,1.001953125,-0.029296875,0.017578125,-0.01171875,0.0,0.0,0.0
57984998,46176,0,1.001953125,-0.03125,0.021484375,-0.009765625,0.0,0.0,0.0
57986249,46177,0,1.00390625,-0.033203125,0.015625,-0.017578125,0.0,0.0,0.0
57987499,46178,0,1.001953125,-0.033203125,0.01953125,-0.013671875,0.0,0.0,0.0
57988751,46179,0,1.001953125,-0.037109375,0.01171875,-0.025390625,0.0,0.0,0.0
57990002,46180,0,1.00390625,-0.029296875,0.01171875,-0.017578125,0.0,0.0,0.0
57991253,46181,0,0.998046875,-0.033203125,0.01953125,-0.013671875,0.0,0.0,0.0
57992503,46182,0,1.0078125,-0.03515625,0.013671875,-0.021484375,0.0,0.0,0.0
57993755,46183,0,1.005859375,-0.033203125,0.009765625,-0.0234375,0.0,0.0,0.0
57995005,46184,0,1.0078125,-0.037109375,0.009765625,-0.02734375,0.0,0.0,0.0
57996256,46185,0,1.0078125,-0.03125,0.015625,-0.015625,0.0,0.0,0.0
57997506,46186,0,1.005859375,-0.03125,0.01953125,-0.01171875,0.0,0.0,0.0
57998757,46187,0,1.001953125,-0.033203125,0.015625,-0.017578125,0.0,0.0,0.0
58000008,46188,0,1.005859375,-0.02734375,0.013671875,-0.013671875,0.0,0.0,0.0
58001258,46189,0,1.017578125,-0.03125,0.009765625,-0.021484375,0.0,0.0,0.0
58002508,46190,0,1.005859375,-0.029296875,0.013671875,-0.015625,0.0,0.0,0.0
58003759,46191,0,1.001953125,-0.029296875,0.00390625,-0.025390625,0.0,0.0,0.0
58005009,46192,0,0.99609375,-0.02734375,0.013671875,-0.013671875,0.0,0.0,0.0
58006259,46193,0,0.998046875,-0.029296875,0.015625,-0.013671875,0.0,0.0,0.0
58007510,46194,0,1.0,-0.03125,0.009765625,-0.021484375,0.0,0.0,0.0
58008762,46195,0,1.005859375,-0.03125,0.0078125,-0.0234375,0.0,0.0,0.0
58010012,46196,0,1.001953125,-0.029296875,0.015625,-0.013671875,0.0,0.0,0.0
58011271,46197,0,1.0078125,-0.0234375,0.017578125,-0.005859375,0.0,0.0,0.0
58012521,46198,0,1.00390625,-0.025390625,0.013671875,-0.01171875,0.0,0.0,0.0
58013773,46199,0,1.001953125,-0.025390625,0.0078125,-0.017578125,0.0,0.0,0.0
58015023,46200,0,1.001953125,-0.025390625,0.015625,-0.009765625,0.0,0.0,0.0
58016274,46201,0,1.001953125,-0.01953125,0.01953125,0.0,0.0,0.0,0.0
58017525,46202,0,1.00390625,-0.01953125,0.015625,-0.00390625,0.0,0.0,0.0
58018776,46203,0,1.00390625,-0.0234375,0.015625,-0.0078125,0.0,0.0,0.0
58020026,46204,0,1.0078125,-0.01953125,0.01171875,-0.0078125,0.0,0.0,0.0
58021276,46205,0,1.005859375,-0.01953125,0.013671875,-0.005859375,0.0,0.0,0.0
58022527,46206,0,1.001953125,-0.017578125,0.015625,-0.001953125,0.0,0.0,0.0
58023778,46207,0,1.0,-0.021484375,0.017578125,-0.00390625,0.0,0.0,0.0
58025029,46208,0,1.001953125,-0.021484375,0.017578125,-0.00390625,0.0,0.0,0.0
58026280,46209,0,0.998046875,-0.021484375,0.017578125,-0.00390625,0.0,0.0,0.0
58027531,46210,0,1.00390625,-0.025390625,0.00390625,-0.021484375,0.0,0.0,0.0
58028783,46211,0,1.0,-0.0234375,0.005859375,-0.017578125,0.0,0.0,0.0
58030034,46212,0,1.0,-0.021484375,0.017578125,-0.00390625,0.0,0.0,0.0
58031286,46213,0,1.005859375,-0.0234375,0.017578125,-0.005859375,0.0,0.0,0.0
58032537,46214,0,1.0,-0.0234375,0.013671875,-0.009765625,0.0,0.0,0.0
58033789,46215,0,0.99609375,-0.017578125,0.021484375,0.00390625,0.0,0.0,0.0
58035039,46216,0,1.00390625,-0.021484375,0.01953125,-0.001953125,0.0,0.0,0.0
58036289,46217,0,1.005859375,-0.021484375,0.017578125,-0.00390625,0.0,0.0,0.0
58037541,46218,0,1.005859375,-0.0234375,0.013671875,-0.009765625,0.0,0.0,0.0
58038792,46219,0,1.00390625,-0.021484375,0.01953125,-0.001953125,0.0,0.0,0.0
58040044,46220,0,1.001953125,-0.0234375,0.015625,-0.0078125,0.0,0.0,0.0
58041294,46221,0,1.005859375,-0.025390625,0.017578125,-0.0078125,0.0,0.0,0.0
58042544,46222,0,1.005859375,-0.0234375,0.021484375,-0.001953125,0.0,0.0,0.0
58043795,46223,0,1.001953125,-0.02734375,0.009765625,-0.017578125,0.0,0.0,0.0
58045045,46224,0,0.998046875,-0.025390625,0.015625,-0.009765625,0.0,0.0,0.0
58046295,46225,0,1.00390625,-0.029296875,0.017578125,-0.01171875,0.0,0.0,0.0
58047546,46226,0,1.0,-0.02734375,0.01171875,-0.015625,0.0,0.0,0.0
58048797,46227,0,1.0078125,-0.033203125,0.0078125,-0.025390625,0.0,0.0,0.0
58050048,46228,0,1.009765625,-0.025390625,0.01953125,-0.005859375,0.0,0.0,0.0
58051299,46229,0,1.001953125,-0.029296875,0.013671875,-0.015625,0.0,0.0,0.0
58052550,46230,0,1.0,-0.03125,0.01171875,-0.01953125,0.0,0.0,0.0
58053800,46231,0,1.00390625,-0.033203125,0.009765625,-0.0234375,0.0,0.0,0.0
58055052,46232,0,1.00390625,-0.029296875,0.015625,-0.013671875,0.0,0.0,0.0
58056303,46233,0,1.009765625,-0.0390625,0.009765625,-0.029296875,0.0,0.0,0.0
58057554,46234,0,0.998046875,-0.033203125,0.0078125,-0.025390625,0.0,0.0,0.0
58058805,46235,0,1.009765625,-0.03125,0.013671875,-0.017578125,0.0,0.0,0.0
58060057,46236,0,1.0,-0.03125,0.013671875,-0.017578125,0.0,0.0,0.0
58061308,46237,0,0.99609375,-0.029296875,0.009765625,-0.01953125,0.0,0.0,0.0
58062560,46238,0,1.0,-0.025390625,0.009765625,-0.015625,0.0,0.0,0.0
58063811,46239,0,1.001953125,-0.03125,0.01171875,-0.01953125,0.0,0.0,0.0
58065063,46240,0,1.001953125,-0.03125,0.015625,-0.015625,0.0,0.0,0.0
58066314,46241,0,1.00390625,-0.03125,0.015625,-0.015625,0.0,0.0,0.0
58067565,46242,0,1.001953125,-0.03515625,0.01953125,-0.015625,0.0,0.0,0.0
58068816,46243,0,1.0,-0.033203125,0.013671875,-0.01953125,0.0,0.0,0.0
58070066,46244,0,1.00390625,-0.02734375,0.017578125,-0.009765625,0.0,0.0,0.0
58071318,46245,0,1.0078125,-0.02734375,0.021484375,-0.005859375,0.0,0.0,0.0
58072569,46246,0,1.001953125,-0.03125,0.015625,-0.015625,0.0,0.0,0.0
58073819,46247,0,0.998046875,-0.029296875,0.015625,-0.013671875,0.0,0.0,0.0
58075070,46248,0,0.998046875,-0.02734375,0.01953125,-0.0078125,0.0,0.0,0.0
58076321,46249,0,1.0,-0.02734375,0.013671875,-0.013671875,0.0,0.0,0.0
58077572,46250,0,1.0,-0.02734375,0.015625,-0.01171875,0.0,0.0,0.0
58078823,46251,0,1.005859375,-0.02734375,0.01171875,-0.015625,0.0,0.0,0.0
58080074,46252,0,1.00390625,-0.01953125,0.013671875,-0.005859375,0.0,0.0,0.0
58081325,46253,0,1.00390625,-0.021484375,0.017578125,-0.00390625,0.0,0.0,0.0
58082575,46254,0,1.00390625,-0.021484375,0.013671875,-0.0078125,0.0,0.0,0.0
58083825,46255,0,1.015625,-0.0234375,0.01953125,-0.00390625,0.0,0.0,0.0
58085076,46256,0,1.009765625,-0.02734375,0.017578125,-0.009765625,0.0,0.0,0.0
58086326,46257,0,0.9921875,-0.01953125,0.017578125,-0.001953125,0.0,0.0,0.0
58087577,46258,0,1.00390625,-0.021484375,0.01953125,-0.001953125,0.0,0.0,0.0
58088828,46259,0,1.005859375,-0.021484375,0.021484375,0.0,0.0,0.0,0.0
58090078,46260,0,1.00390625,-0.01953125,0.01953125,0.0,0.0,0.0,0.0
58091329,46261,0,1.005859375,-0.0234375,0.015625,-0.0078125,0.0,0.0,0.0
58092581,46262,0,1.0078125,-0.0234375,0.021484375,-0.001953125,0.0,0.0,0.0
58093833,46263,0,1.001953125,-0.021484375,0.01953125,-0.001953125,0.0,0.0,0.0
58095083,46264,0,0.998046875,-0.0234375,0.01953125,-0.00390625,0.0,0.0,0.0
58096333,46265,0,1.001953125,-0.0234375,0.021484375,-0.001953125,0.0,0.0,0.0
58097584,46266,0,1.001953125,-0.021484375,0.01953125,-0.001953125,0.0,0.0,0.0
58098835,46267,0,1.001953125,-0.021484375,0.021484375,0.0,0.0,0.0,0.0
58100085,46268,0,1.00390625,-0.01953125,0.013671875,-0.005859375,0.0,0.0,0.0
58101336,46269,0,1.0078125,-0.01953125,0.017578125,-0.001953125,0.0,0.0,0.0
58102587,46270,0,1.00390625,-0.021484375,0.017578125,-0.00390625,0.0,0.0,0.0
58103838,46271,0,1.00390625,-0.0234375,0.01953125,-0.00390625,0.0,0.0,0.0
58105090,46272,0,1.005859375,-0.025390625,0.01953125,-0.005859375,0.0,0.0,0.0
58106341,46273,0,0.994140625,-0.021484375,0.01953125,-0.001953125,0.0,0.0,0.0
58107592,46274,0,1.0,-0.02734375,0.021484375,-0.005859375,0.0,0.0,0.0
58108844,46275,0,1.0,-0.021484375,0.01953125,-0.001953125,0.0,0.0,0.0
58110095,46276,0,1.0078125,-0.0234375,0.013671875,-0.009765625,0.0,0.0,0.0
58111346,46277,0,1.00390625,-0.025390625,0.021484375,-0.00390625,0.0,0.0,0.0
58112597,46278,0,1.005859375,-0.03515625,0.01953125,-0.015625,0.0,0.0,0.0
58113849,46279,0,1.005859375,-0.029296875,0.015625,-0.013671875,0.0,0.0,0.0
58115099,46280,0,1.0,-0.029296875,0.015625,-0.013671875,0.0,0.0,0.0
58116351,46281,0,0.998046875,-0.029296875,0.021484375,-0.0078125,0.0,0.0,0.0
58117602,46282,0,1.001953125,-0.02734375,0.013671875,-0.013671875,0.0,0.0,0.0
58118854,46283,0,1.00390625,-0.029296875,0.013671875,-0.015625,0.0,0.0,0.0
58120104,46284,0,1.001953125,-0.02734375,0.013671875,-0.013671875,0.0,0.0,0.0
58121354,46285,0,1.0078125,-0.029296875,0.017578125,-0.01171875,0.0,0.0,0.0
58122605,46286,0,1.001953125,-0.029296875,0.013671875,-0.015625,0.0,0.0,0.0
58123855,46287,0,1.0,-0.029296875,0.009765625,-0.01953125,0.0,0.0,0.0
58125107,46288,0,1.00390625,-0.03125,0.01953125,-0.01171875,0.0,0.0,0.0
58126358,46289,0,1.00390625,-0.033203125,0.013671875,-0.01953125,0.0,0.0,0.0
58127609,46290,0,1.005859375,-0.03125,0.01171875,-0.01953125,0.0,0.0,0.0
58128859,46291,0,1.0078125,-0.033203125,0.013671875,-0.01953125,0.0,0.0,0.0
58130111,46292,0,1.01171875,-0.03125,0.01171875,-0.01953125,0.0,0.0,0.0
58131362,46293,0,1.009765625,-0.033203125,0.015625,-0.017578125,0.0,0.0,0.0
58132613,46294,0,1.00390625,-0.0234375,0.0078125,-0.015625,0.0,0.0,0.0
58133865,46295,0,0.998046875,-0.03125,0.013671875,-0.017578125,0.0,0.0,0.0
58135115,46296,0,1.017578125,-0.037109375,0.009765625,-0.02734375,0.0,0.0,0.0
58136365,46297,0,1.013671875,-0.03515625,0.009765625,-0.025390625,0.0,0.0,0.0
58137617,46298,0,1.0,-0.02734375,0.01953125,-0.0078125,0.0,0.0,0.0
58138867,46299,0,1.0078125,-0.029296875,0.009765625,-0.01953125,0.0,0.0,0.0
58140118,46300,0,0.998046875,-0.033203125,0.015625,-0.017578125,0.0,0.0,0.0
58141369,46301,0,0.9921875,-0.029296875,0.013671875,-0.015625,0.0,0.0,0.0
58142620,46302,0,1.0,-0.02734375,0.017578125,-0.009765625,0.0,0.0,0.0
58143871,46303,0,1.001953125,-0.029296875,0.025390625,-0.00390625,0.0,0.0,0.0
58145123,46304,0,1.001953125,-0.025390625,0.01953125,-0.005859375,0.0,0.0,0.0
58146374,46305,0,1.001953125,-0.02734375,0.013671875,-0.013671875,0.0,0.0,0.0
58147624,46306,0,1.0078125,-0.025390625,0.01171875,-0.013671875,0.0,0.0,0.0
58148875,46307,0,0.998046875,-0.02734375,0.009765625,-0.017578125,0.0,0.0,0.0
58150125,46308,0,1.001953125,-0.029296875,0.013671875,-0.015625,0.0,0.0,0.0
58151375,46309,0,1.005859375,-0.02734375,0.009765625,-0.017578125,0.0,0.0,0.0
58152626,46310,0,1.001953125,-0.0234375,0.017578125,-0.005859375,0.0,0.0,0.0
58153877,46311,0,1.0,-0.0234375,0.015625,-0.0078125,0.0,0.0,0.0
58155129,46312,0,1.001953125,-0.021484375,0.015625,-0.005859375,0.0,0.0,0.0
58156380,46313,0,1.0078125,-0.025390625,0.017578125,-0.0078125,0.0,0.0,0.0
58157630,46314,0,0.998046875,-0.01953125,0.01953125,0.0,0.0,0.0,0.0
58158881,46315,0,1.005859375,-0.021484375,0.01953125,-0.001953125,0.0,0.0,0.0
58160133,46316,0,1.0,-0.029296875,0.015625,-0.013671875,0.0,0.0,0.0
58161384,46317,0,1.015625,-0.0234375,0.01953125,-0.00390625,0.0,0.0,0.0
58162634,46318,0,1.00390625,-0.017578125,0.01171875,-0.005859375,0.0,0.0,0.0
58163886,46319,0,1.005859375,-0.017578125,0.0078125,-0.009765625,0.0,0.0,0.0
58165136,46320,0,1.0,-0.021484375,0.017578125,-0.00390625,0.0,0.0,0.0
58166386,46321,0,1.001953125,-0.021484375,0.009765625,-0.01171875,0.0,0.0,0.0
58167638,46322,0,1.00390625,-0.02734375,0.015625,-0.01171875,0.0,0.0,0.0
58168888,46323,0,1.0078125,-0.025390625,0.013671875,-0.01171875,0.0,0.0,0.0
58170139,46324,0,1.005859375,-0.021484375,0.017578125,-0.00390625,0.0,0.0,0.0
58171391,46325,0,1.001953125,-0.0234375,0.01953125,-0.00390625,0.0,0.0,0.0
58172641,46326,0,1.001953125,-0.02734375,0.009765625,-0.017578125,0.0,0.0,0.0
58173892,46327,0,1.001953125,-0.0234375,0.01953125,-0.00390625,0.0,0.0,0.0
58175142,46328,0,1.005859375,-0.025390625,0.017578125,-0.0078125,0.0,0.0,0.0
58176393,46329,0,1.009765625,-0.02734375,0.013671875,-0.013671875,0.0,0.0,0.0
58177645,46330,0,1.0078125,-0.025390625,0.017578125,-0.0078125,0.0,0.0,0.0
58178895,46331,0,0.99609375,-0.025390625,0.017578125,-0.0078125,0.0,0.0,0.0
58180147,46332,0,1.001953125,-0.02734375,0.015625,-0.01171875,0.0,0.0,0.0
58181397,46333,0,1.001953125,-0.02734375,0.013671875,-0.013671875,0.0,0.0,0.0
58182649,46334,0,1.001953125,-0.02734375,0.015625,-0.01171875,0.0,0.0,0.0
58183899,46335,0,1.0078125,-0.029296875,0.013671875,-0.015625,0.0,0.0,0.0
58185149,46336,0,1.0,-0.03515625,0.013671875,-0.021484375,0.0,0.0,0.0
58186399,46337,0,1.00390625,-0.033203125,0.021484375,-0.01171875,0.0,0.0,0.0
58187650,46338,0,1.0078125,-0.029296875,0.021484375,-0.0078125,0.0,0.0,0.0
58188902,46339,0,1.013671875,-0.021484375,0.015625,-0.005859375,0.0,0.0,0.0
58190153,46340,0,1.0078125,-0.033203125,0.0234375,-0.009765625,0.0,0.0,0.0
58191404,46341,0,1.0078125,-0.03125,0.015625,-0.015625,0.0,0.0,0.0
58192654,46342,0,1.0,-0.029296875,0.009765625,-0.01953125,0.0,0.0,0.0
58193904,46343,0,1.0078125,-0.03125,0.013671875,-0.017578125,0.0,0.0,0.0
58195155,46344,0,1.001953125,-0.033203125,0.015625,-0.017578125,0.0,0.0,0.0
58196407,46345,0,0.994140625,-0.029296875,0.015625,-0.013671875,0.0,0.0,0.0
58197657,46346,0,1.005859375,-0.03125,0.01953125,-0.01171875,0.0,0.0,0.0
58198909,46347,0,1.0078125,-0.029296875,0.013671875,-0.015625,0.0,0.0,0.0
58200159,46348,0,1.001953125,-0.029296875,0.01171875,-0.017578125,0.0,0.0,0.0
58201409,46349,0,1.00390625,-0.03125,0.01171875,-0.01953125,0.0,0.0,0.0
58202661,46350,0,0.99609375,-0.02734375,0.015625,-0.01171875,0.0,0.0,0.0
58203911,46351,0,1.001953125,-0.025390625,0.015625,-0.009765625,0.0,0.0,0.0
58205161,46352,0,0.998046875,-0.02734375,0.01171875,-0.015625,0.0,0.0,0.0
58206411,46353,0,0.998046875,-0.03125,0.017578125,-0.013671875,0.0,0.0,0.0
58207663,46354,0,0.99609375,-0.02734375,0.013671875,-0.013671875,0.0,0.0,0.0
58208913,46355,0,1.0,-0.02734375,0.015625,-0.01171875,0.0,0.0,0.0
58210164,46356,0,1.0,-0.029296875,0.017578125,-0.01171875,0.0,0.0,0.0
58211415,46357,0,1.001953125,-0.025390625,0.017578125,-0.0078125,0.0,0.0,0.0
58212666,46358,0,0.994140625,-0.025390625,0.009765625,-0.015625,0.0,0.0,0.0
58213916,46359,0,1.001953125,-0.025390625,0.013671875,-0.01171875,0.0,0.0,0.0
58215166,46360,0,1.005859375,-0.0234375,0.01953125,-0.00390625,0.0,0.0,0.0
58216416,46361,0,1.001953125,-0.0234375,0.01953125,-0.00390625,0.0,0.0,0.0
58217668,46362,0,1.015625,-0.029296875,0.01171875,-0.017578125,0.0,0.0,0.0
58218918,46363,0,1.009765625,-0.01953125,0.017578125,-0.001953125,0.0,0.0,0.0
58220169,46364,0,1.001953125,-0.0234375,0.013671875,-0.009765625,0.0,0.0,0.0
58221420,46365,0,1.0,-0.021484375,0.01953125,-0.001953125,0.0,0.0,0.0
58222670,46366,0,1.001953125,-0.01953125,0.015625,-0.00390625,0.0,0.0,0.0
58223921,46367,0,1.0,-0.021484375,0.017578125,-0.00390625,0.0,0.0,0.0
58225172,46368,0,1.00390625,-0.0234375,0.01171875,-0.01171875,0.0,0.0,0.0
58226424,46369,0,1.001953125,-0.021484375,0.013671875,-0.0078125,0.0,0.0,0.0
58227674,46370,0,1.001953125,-0.01953125,0.013671875,-0.005859375,0.0,0.0,0.0
58228925,46371,0,1.00390625,-0.021484375,0.017578125,-0.00390625,0.0,0.0,0.0
58230177,46372,0,1.005859375,-0.0234375,0.013671875,-0.009765625,0.0,0.0,0.0
58231429,46373,0,1.001953125,-0.021484375,0.017578125,-0.00390625,0.0,0.0,0.0
58232679,46374,0,1.005859375,-0.025390625,0.015625,-0.009765625,0.0,0.0,0.0
58233931,46375,0,1.001953125,-0.0234375,0.017578125,-0.005859375,0.0,0.0,0.0
58235181,46376,0,0.998046875,-0.021484375,0.013671875,-0.0078125,0.0,0.0,0.0
58236431,46377,0,1.001953125,-0.021484375,0.015625,-0.005859375,0.0,0.0,0.0
58237683,46378,0,1.0,-0.02734375,0.015625,-0.01171875,0.0,0.0,0.0
58238933,46379,0,1.00390625,-0.0234375,0.009765625,-0.013671875,0.0,0.0,0.0
58240183,46380,0,1.00390625,-0.02734375,0.01953125,-0.0078125,0.0,0.0,0.0
58241434,46381,0,1.017578125,-0.029296875,0.0078125,-0.021484375,0.0,0.0,0.0
58242685,46382,0,1.005859375,-0.029296875,0.0078125,-0.021484375,0.0,0.0,0.0
58243936,46383,0,0.99609375,-0.0234375,0.01953125,-0.00390625,0.0,0.0,0.0
58245186,46384,0,1.0078125,-0.029296875,0.009765625,-0.01953125,0.0,0.0,0.0
58246437,46385,0,1.0078125,-0.02734375,0.009765625,-0.017578125,0.0,0.0,0.0
58247687,46386,0,1.001953125,-0.02734375,0.00390625,-0.0234375,0.0,0.0,0.0
58248937,46387,0,0.998046875,-0.029296875,0.009765625,-0.01953125,0.0,0.0,0.0
58250188,46388,0,1.005859375,-0.029296875,0.015625,-0.013671875,0.0,0.0,0.0
58251440,46389,0,1.0078125,-0.02734375,0.005859375,-0.021484375,0.0,0.0,0.0
58252690,46390,0,1.001953125,-0.03125,0.013671875,-0.017578125,0.0,0.0,0.0
58253942,46391,0,0.998046875,-0.029296875,0.01953125,-0.009765625,0.0,0.0,0.0
58255193,46392,0,1.0,-0.025390625,0.015625,-0.009765625,0.0,0.0,0.0
58256445,46393,0,0.998046875,-0.033203125,0.009765625,-0.0234375,0.0,0.0,0.0
58257695,46394,0,0.998046875,-0.037109375,0.013671875,-0.0234375,0.0,0.0,0.0
58258947,46395,0,1.001953125,-0.03515625,0.015625,-0.01953125,0.0,0.0,0.0
58260198,46396,0,1.001953125,-0.03515625,0.009765625,-0.025390625,0.0,0.0,0.0
58261450,46397,0,1.00390625,-0.03125,0.013671875,-0.017578125,0.0,0.0,0.0
58262700,46398,0,1.00390625,-0.033203125,0.01953125,-0.013671875,0.0,0.0,0.0
58263952,46399,0,1.005859375,-0.02734375,0.017578125,-0.009765625,0.0,0.0,0.0
58265203,46400,0,1.00390625,-0.02734375,0.01953125,-0.0078125,0.0,0.0,0.0
58266454,46401,0,1.0,-0.03125,0.015625,-0.015625,0.0,0.0,0.0
58267705,46402,0,1.00390625,-0.029296875,0.017578125,-0.01171875,0.0,0.0,0.0
58268957,46403,0,1.00390625,-0.02734375,0.025390625,-0.001953125,0.0,0.0,0.0
58270207,46404,0,1.00390625,-0.0234375,0.0234375,0.0,0.0,0.0,0.0
58271459,46405,0,1.001953125,-0.02734375,0.015625,-0.01171875,0.0,0.0,0.0
58272709,46406,0,1.01171875,-0.03125,0.0078125,-0.0234375,0.0,0.0,0.0
58273959,46407,0,1.005859375,-0.033203125,0.01953125,-0.013671875,0.0,0.0,0.0
58275209,46408,0,1.009765625,-0.025390625,0.015625,-0.009765625,0.0,0.0,0.0
58276459,46409,0,1.001953125,-0.02734375,0.017578125,-0.009765625,0.0,0.0,0.0
58277711,46410,0,1.0078125,-0.025390625,0.015625,-0.009765625,0.0,0.0,0.0
58278961,46411,0,1.009765625,-0.025390625,0.01953125,-0.005859375,0.0,0.0,0.0
58280213,46412,0,1.001953125,-0.025390625,0.013671875,-0.01171875,0.0,0.0,0.0
58281464,46413,0,1.00390625,-0.021484375,0.01953125,-0.001953125,0.0,0.0,0.0
58282715,46414,0,1.00390625,-0.021484375,0.021484375,0.0,0.0,0.0,0.0
58283966,46415,0,1.001953125,-0.021484375,0.015625,-0.005859375,0.0,0.0,0.0
58285216,46416,0,1.00390625,-0.021484375,0.0234375,0.001953125,0.0,0.0,0.0
58286467,46417,0,1.001953125,-0.0234375,0.021484375,-0.001953125,0.0,0.0,0.0
58287718,46418,0,1.001953125,-0.021484375,0.015625,-0.005859375,0.0,0.0,0.0
58288968,46419,0,1.00390625,-0.025390625,0.017578125,-0.0078125,0.0,0.0,0.0
58290219,46420,0,0.998046875,-0.02734375,0.017578125,-0.009765625,0.0,0.0,0.0
58291470,46421,0,1.0078125,-0.021484375,0.021484375,0.0,0.0,0.0,0.0
58292721,46422,0,1.00390625,-0.025390625,0.017578125,-0.0078125,0.0,0.0,0.0
58293971,46423,0,1.001953125,-0.0234375,0.017578125,-0.005859375,0.0,0.0,0.0
58295223,46424,0,1.001953125,-0.025390625,0.01171875,-0.013671875,0.0,0.0,0.0
58296473,46425,0,1.0078125,-0.01953125,0.017578125,-0.001953125,0.0,0.0,0.0
58297723,46426,0,1.013671875,-0.0234375,0.01171875,-0.01171875,0.0,0.0,0.0
58298975,46427,0,1.005859375,-0.025390625,0.013671875,-0.01171875,0.0,0.0,0.0
58300226,46428,0,1.0,-0.03125,0.015625,-0.015625,0.0,0.0,0.0
58301476,46429,0,1.001953125,-0.0234375,0.01953125,-0.00390625,0.0,0.0,0.0
58302728,46430,0,1.0078125,-0.025390625,0.017578125,-0.0078125,0.0,0.0,0.0
58303979,46431,0,1.00390625,-0.021484375,0.01953125,-0.001953125,0.0,0.0,0.0
58305229,46432,0,1.0078125,-0.0234375,0.01953125,-0.00390625,0.0,0.0,0.0
58306481,46433,0,1.005859375,-0.021484375,0.017578125,-0.00390625,0.0,0.0,0.0
58307731,46434,0,1.005859375,-0.0234375,0.013671875,-0.009765625,0.0,0.0,0.0
58308981,46435,0,1.001953125,-0.033203125,0.013671875,-0.01953125,0.0,0.0,-8.506127642249339e-07
58311483,46437,0,1.005859375,-0.025390625,0.017578125,-0.0078125,0.0,0.0,0.0
58312734,46438,0,1.005859375,-0.029296875,0.013671875,-0.015625,0.0,0.0,0.0
58313986,46439,0,1.005859375,-0.029296875,0.015625,-0.013671875,0.0,0.0,0.0
58315236,46440,0,1.001953125,-0.03125,0.01171875,-0.01953125,0.0,0.0,0.0
58316486,46441,0,1.0,-0.029296875,0.017578125,-0.01171875,0.0,0.0,0.0
58317737,46442,0,1.0078125,-0.033203125,0.009765625,-0.0234375,0.0,0.0,0.0
58318987,46443,0,1.005859375,-0.029296875,0.013671875,-0.015625,0.0,0.0,0.0
58320238,46444,0,1.00390625,-0.02734375,0.013671875,-0.013671875,0.0,0.0,0.0
58321489,46445,0,1.013671875,-0.02734375,0.013671875,-0.013671875,0.0,0.0,0.0
58322740,46446,0,1.005859375,-0.02734375,0.00390625,-0.0234375,0.0,0.0,0.0
58323991,46447,0,1.005859375,-0.02734375,0.015625,-0.01171875,0.0,0.0,0.0
58325241,46448,0,1.001953125,-0.025390625,0.01171875,-0.013671875,0.0,0.0,0.0
58326492,46449,0,1.001953125,-0.029296875,0.0078125,-0.021484375,0.0,0.0,0.0
58327744,46450,0,0.998046875,-0.029296875,0.017578125,-0.01171875,0.0,0.0,0.0
58328994,46451,0,0.998046875,-0.033203125,0.013671875,-0.01953125,0.0,0.0,0.0
58330245,46452,0,1.00390625,-0.033203125,0.015625,-0.017578125,0.0,0.0,0.0
58331496,46453,0,1.0078125,-0.025390625,0.0078125,-0.017578125,0.0,0.0,0.0
58332747,46454,0,0.998046875,-0.029296875,0.01171875,-0.017578125,0.0,0.0,0.0
58333998,46455,0,1.001953125,-0.02734375,0.01953125,-0.0078125,0.0,0.0,0.0
58335249,46456,0,1.0078125,-0.029296875,0.017578125,-0.01171875,0.0,0.0,0.0
58336499,46457,0,1.001953125,-0.02734375,0.015625,-0.01171875,0.0,0.0,0.0
58337751,46458,0,1.00390625,-0.025390625,0.01171875,-0.013671875,0.0,0.0,0.0
58339002,46459,0,1.005859375,-0.021484375,0.01171875,-0.009765625,0.0,0.0,0.0
58340253,46460,0,1.001953125,-0.0234375,0.013671875,-0.009765625,0.0,0.0,0.0
58341503,46461,0,1.001953125,-0.021484375,0.015625,-0.005859375,0.0,0.0,0.0
58342755,46462,0,1.00390625,-0.025390625,0.017578125,-0.0078125,0.0,0.0,0.0
58344005,46463,0,1.009765625,-0.02734375,0.015625,-0.01171875,0.0,0.0,0.0
58345256,46464,0,1.005859375,-0.029296875,0.017578125,-0.01171875,0.0,0.0,0.0
58346506,46465,0,1.0078125,-0.0234375,0.01171875,-0.01171875,0.0,0.0,0.0
58347757,46466,0,1.01171875,-0.01953125,0.01953125,0.0,0.0,0.0,0.0
58349008,46467,0,1.005859375,-0.021484375,0.021484375,0.0,0.0,0.0,0.0
58350258,46468,0,1.005859375,-0.02734375,0.017578125,-0.009765625,0.0,0.0,0.0
58351508,46469,0,1.00390625,-0.025390625,0.005859375,-0.01953125,0.0,0.0,0.0
58352759,46470,0,0.994140625,-0.021484375,0.01953125,-0.001953125,0.0,0.0,0.0
58354009,46471,0,1.009765625,-0.017578125,0.01171875,-0.005859375,0.0,0.0,0.0
58355259,46472,0,1.00390625,-0.01953125,0.013671875,-0.005859375,0.0,0.0,0.0
58356510,46473,0,1.0078125,-0.0234375,0.021484375,-0.001953125,0.0,0.0,0.0
58357762,46474,0,0.998046875,-0.025390625,0.017578125,-0.0078125,0.0,0.0,0.0
58359012,46475,0,1.005859375,-0.0234375,0.015625,-0.0078125,0.0,0.0,0.0
58360271,46476,0,1.00390625,-0.021484375,0.021484375,0.0,0.0,0.0,0.0
58361521,46477,0,1.001953125,-0.025390625,0.01953125,-0.005859375,0.0,0.0,0.0
58362773,46478,0,1.00390625,-0.021484375,0.015625,-0.005859375,0.0,0.0,0.0
58364023,46479,0,1.001953125,-0.025390625,0.013671875,-0.01171875,0.0,0.0,0.0
58365274,46480,0,1.00390625,-0.02734375,0.017578125,-0.009765625,0.0,0.0,0.0
58366525,46481,0,1.005859375,-0.0234375,0.021484375,-0.001953125,0.0,0.0,0.0
58367776,46482,0,1.00390625,-0.021484375,0.015625,-0.005859375,0.0,0.0,0.0
58369026,46483,0,1.00390625,-0.02734375,0.013671875,-0.013671875,0.0,0.0,0.0
58370276,46484,0,1.005859375,-0.02734375,0.017578125,-0.009765625,0.0,0.0,0.0
58371527,46485,0,1.00390625,-0.0234375,0.015625,-0.0078125,0.0,0.0,0.0
58372778,46486,0,1.01171875,-0.03125,0.015625,-0.015625,0.0,0.0,0.0
58374029,46487,0,1.00390625,-0.025390625,0.013671875,-0.01171875,0.0,0.0,0.0
58375280,46488,0,1.001953125,-0.03125,0.009765625,-0.021484375,0.0,0.0,0.0
58376531,46489,0,1.0078125,-0.02734375,0.009765625,-0.017578125,0.0,0.0,0.0
58377783,46490,0,1.005859375,-0.01953125,0.013671875,-0.005859375,0.0,0.0,0.0
58379034,46491,0,1.015625,-0.025390625,0.01953125,-0.005859375,0.0,0.0,0.0
58380286,46492,0,0.998046875,-0.029296875,0.01171875,-0.017578125,0.0,0.0,0.0
58381537,46493,0,0.9921875,-0.029296875,0.013671875,-0.015625,0.0,0.0,0.0
58382789,46494,0,1.015625,-0.02734375,0.017578125,-0.009765625,0.0,0.0,0.0
58384039,46495,0,1.0,-0.03515625,0.017578125,-0.017578125,0.0,0.0,0.0
58385289,46496,0,1.0,-0.02734375,0.013671875,-0.013671875,0.0,0.0,0.0
58386541,46497,0,0.99609375,-0.03515625,0.015625,-0.01953125,0.0,0.0,0.0
58387792,46498,0,1.005859375,-0.029296875,0.013671875,-0.015625,0.0,0.0,0.0
58389044,46499,0,1.005859375,-0.02734375,0.013671875,-0.013671875,0.0,0.0,0.0
58390294,46500,0,1.0078125,-0.029296875,0.009765625,-0.01953125,0.0,0.0,0.0
58391544,46501,0,1.00390625,-0.03125,0.0078125,-0.0234375,0.0,0.0,0.0
58392795,46502,0,1.005859375,-0.02734375,0.01171875,-0.015625,0.0,0.0,0.0
58394045,46503,0,1.001953125,-0.025390625,0.013671875,-0.01171875,0.0,0.0,0.0
58395295,46504,0,1.005859375,-0.025390625,0.01171875,-0.013671875,0.0,0.0,0.0
58396546,46505,0,1.009765625,-0.029296875,0.01171875,-0.017578125,0.0,0.0,0.0
58397797,46506,0,1.0078125,-0.029296875,0.017578125,-0.01171875,0.0,0.0,0.0
58399048,46507,0,1.0078125,-0.029296875,0.0078125,-0.021484375,0.0,0.0,0.0
58400299,46508,0,1.0078125,-0.025390625,0.013671875,-0.01171875,0.0,0.0,0.0
58401550,46509,0,1.0078125,-0.025390625,0.0234375,-0.001953125,0.0,0.0,0.0
58402800,46510,0,1.009765625,-0.025390625,0.013671875,-0.01171875,0.0,0.0,0.0
58404052,46511,0,1.00390625,-0.025390625,0.01953125,-0.005859375,0.0,0.0,0.0
58405303,46512,0,0.998046875,-0.021484375,0.009765625,-0.01171875,0.0,0.0,0.0
58406554,46513,0,1.005859375,-0.0234375,0.01953125,-0.00390625,0.0,0.0,0.0
58407805,46514,0,1.009765625,-0.03125,0.01171875,-0.01953125,0.0,0.0,0.0
58409057,46515,0,0.99609375,-0.025390625,0.009765625,-0.015625,0.0,0.0,0.0
58410308,46516,0,1.00390625,-0.021484375,0.013671875,-0.0078125,0.0,0.0,0.0
58411560,46517,0,1.0078125,-0.02734375,0.01171875,-0.015625,0.0,0.0,0.0
58412811,46518,0,1.0078125,-0.02734375,0.015625,-0.01171875,0.0,0.0,0.0
58414063,46519,0,1.0078125,-0.025390625,0.017578125,-0.0078125,0.0,0.0,0.0
58415314,46520,0,1.0,-0.029296875,0.01953125,-0.009765625,0.0,0.0,0.0
58416565,46521,0,1.00390625,-0.025390625,0.013671875,-0.01171875,0.0,0.0,0.0
58417816,46522,0,1.001953125,-0.0234375,0.015625,-0.0078125,0.0,0.0,0.0
58419066,46523,0,1.009765625,-0.025390625,0.01953125,-0.005859375,0.0,0.0,0.0
58420318,46524,0,1.0,-0.0234375,0.021484375,-0.001953125,0.0,0.0,0.0
58421569,46525,0,1.00390625,-0.021484375,0.017578125,-0.00390625,0.0,0.0,0.0
58422819,46526,0,1.00390625,-0.025390625,0.01953125,-0.005859375,0.0,0.0,0.0
58424070,46527,0,1.005859375,-0.02734375,0.017578125,-0.009765625,0.0,0.0,0.0
58425321,46528,0,1.001953125,-0.0234375,0.01953125,-0.00390625,0.0,0.0,0.0
58426572,46529,0,1.001953125,-0.025390625,0.01953125,-0.005859375,0.0,0.0,0.0
58427823,46530,0,1.00390625,-0.021484375,0.009765625,-0.01171875,0.0,0.0,0.0
58429074,46531,0,1.001953125,-0.025390625,0.021484375,-0.00390625,0.0,0.0,0.0
58430325,46532,0,1.0078125,-0.029296875,0.021484375,-0.0078125,0.0,0.0,0.0
58431575,46533,0,1.001953125,-0.021484375,0.0234375,0.001953125,0.0,0.0,0.0
58432825,46534,0,0.998046875,-0.0234375,0.017578125,-0.005859375,0.0,0.0,0.0
58434076,46535,0,1.0,-0.025390625,0.015625,-0.009765625,0.0,0.0,0.0
58435326,46536,0,1.005859375,-0.025390625,0.017578125,-0.0078125,0.0,0.0,0.0
58436577,46537,0,1.001953125,-0.02734375,0.015625,-0.01171875,0.0,0.0,0.0
58437828,46538,0,1.0078125,-0.03125,0.01953125,-0.01171875,0.0,0.0,0.0
58439078,46539,0,1.005859375,-0.029296875,0.015625,-0.013671875,0.0,0.0,0.0
58440329,46540,0,1.00390625,-0.029296875,0.015625,-0.013671875,0.0,0.0,0.0
58441581,46541,0,1.001953125,-0.03125,0.017578125,-0.013671875,0.0,0.0,0.0
58442833,46542,0,1.001953125,-0.02734375,0.013671875,-0.013671875,0.0,0.0,0.0
58444083,46543,0,1.0,-0.02734375,0.021484375,-0.005859375,0.0,0.0,0.0
58445333,46544,0,0.998046875,-0.021484375,0.013671875,-0.0078125,0.0,0.0,0.0
58446584,46545,0,1.001953125,-0.0234375,0.01953125,-0.00390625,0.0,0.0,0.0
58447835,46546,0,1.0078125,-0.021484375,0.01953125,-0.001953125,0.0,0.0,0.0
58449085,46547,0,1.00390625,-0.025390625,0.013671875,-0.01171875,0.0,0.0,0.0
58450336,46548,0,1.0078125,-0.025390625,0.01953125,-0.005859375,0.0,0.0,0.0
58451587,46549,0,1.001953125,-0.033203125,0.015625,-0.017578125,0.0,0.0,0.0
58452838,46550,0,1.0078125,-0.033203125,0.021484375,-0.01171875,0.0,0.0,0.0
58454090,46551,0,1.0,-0.033203125,0.01171875,-0.021484375,0.0,0.0,0.0
58455341,46552,0,1.005859375,-0.033203125,0.0078125,-0.025390625,0.0,0.0,0.0
58456592,46553,0,1.0,-0.03125,0.01953125,-0.01171875,0.0,0.0,0.0
58457844,46554,0,1.001953125,-0.03515625,0.009765625,-0.025390625,0.0,0.0,0.0
58459095,46555,0,1.00390625,-0.025390625,0.021484375,-0.00390625,0.0,0.0,0.0
58460346,46556,0,0.990234375,-0.02734375,0.017578125,-0.009765625,0.0,0.0,0.0
58461597,46557,0,1.001953125,-0.02734375,0.01953125,-0.0078125,0.0,0.0,0.0
58462849,46558,0,1.013671875,-0.029296875,0.013671875,-0.015625,0.0,0.0,0.0
58464099,46559,0,1.005859375,-0.025390625,0.013671875,-0.01171875,0.0,0.0,0.0
58465351,46560,0,1.00390625,-0.029296875,0.015625,-0.013671875,0.0,0.0,0.0
58466602,46561,0,1.001953125,-0.029296875,0.009765625,-0.01953125,0.0,0.0,0.0
58467854,46562,0,0.998046875,-0.025390625,0.013671875,-0.01171875,0.0,0.0,0.0
58469104,46563,0,1.0,-0.029296875,0.013671875,-0.015625,0.0,0.0,0.0
58470354,46564,0,1.005859375,-0.029296875,0.015625,-0.013671875,0.0,0.0,0.0
58471605,46565,0,1.00390625,-0.02734375,0.015625,-0.01171875,0.0,0.0,0.0
58472855,46566,0,1.0,-0.02734375,0.015625,-0.01171875,0.0,0.0,0.0
58474107,46567,0,1.0,-0.02734375,0.013671875,-0.013671875,0.0,0.0,0.0
58475358,46568,0,1.0,-0.025390625,0.009765625,-0.015625,0.0,0.0,0.0
58476609,46569,0,0.99609375,-0.025390625,0.013671875,-0.01171875,0.0,0.0,0.0
58477859,46570,0,1.005859375,-0.02734375,0.017578125,-0.009765625,0.0,0.0,0.0
58479111,46571,0,1.001953125,-0.021484375,0.009765625,-0.01171875,0.0,0.0,0.0
58480362,46572,0,1.0078125,-0.025390625,0.013671875,-0.01171875,0.0,0.0,0.0
58481613,46573,0,1.021484375,-0.025390625,0.01171875,-0.013671875,0.0,0.0,0.0
58482865,46574,0,1.009765625,-0.029296875,0.009765625,-0.01953125,0.0,0.0,0.0
58484115,46575,0,1.001953125,-0.0234375,0.009765625,-0.013671875,0.0,0.0,0.0
58485365,46576,0,1.005859375,-0.029296875,0.00390625,-0.025390625,0.0,0.0,0.0
58486617,46577,0,1.001953125,-0.025390625,0.013671875,-0.01171875,0.0,0.0,0.0
58487867,46578,0,1.0,-0.0234375,0.015625,-0.0078125,0.0,0.0,0.0
58489118,46579,0,1.005859375,-0.025390625,0.015625,-0.009765625,0.0,0.0,0.0
58490369,46580,0,1.001953125,-0.029296875,0.01171875,-0.017578125,0.0,0.0,0.0
58491620,46581,0,1.0078125,-0.021484375,0.013671875,-0.0078125,0.0,0.0,0.0
58492871,46582,0,1.001953125,-0.02734375,0.01171875,-0.015625,0.0,0.0,0.0
58494123,46583,0,0.998046875,-0.025390625,0.017578125,-0.0078125,0.0,0.0,0.0
58495374,46584,0,1.0,-0.0234375,0.013671875,-0.009765625,0.0,0.0,0.0
58496624,46585,0,1.009765625,-0.029296875,0.015625,-0.013671875,0.0,0.0,0.0
58497875,46586,0,1.0,-0.029296875,0.009765625,-0.01953125,0.0,0.0,0.0
58499125,46587,0,1.005859375,-0.02734375,0.01953125,-0.0078125,0.0,0.0,0.0
58500375,46588,0,1.001953125,-0.033203125,0.015625,-0.017578125,0.0,0.0,0.0
58501626,46589,0,1.00390625,-0.029296875,0.01953125,-0.009765625,0.0,0.0,0.0
58502877,46590,0,1.001953125,-0.025390625,0.0078125,-0.017578125,0.0,0.0,0.0
58504129,46591,0,0.998046875,-0.025390625,0.013671875,-0.01171875,0.0,0.0,0.0
58505380,46592,0,1.001953125,-0.02734375,0.01953125,-0.0078125,0.0,0.0,0.0
58506630,46593,0,1.001953125,-0.033203125,0.015625,-0.017578125,0.0,0.0,0.0
58507881,46594,0,1.00390625,-0.03125,0.015625,-0.015625,0.0,0.0,0.0
58509133,46595,0,1.015625,-0.02734375,0.015625,-0.01171875,0.0,0.0,0.0
58510384,46596,0,0.998046875,-0.025390625,0.015625,-0.009765625,0.0,0.0,0.0
58511634,46597,0,1.005859375,-0.033203125,0.01953125,-0.013671875,0.0,0.0,0.0
58512886,46598,0,1.0078125,-0.03125,0.017578125,-0.013671875,0.0,0.0,0.0
58514136,46599,0,0.990234375,-0.0234375,0.01953125,-0.00390625,0.0,0.0,0.0
58515386,46600,0,0.99609375,-0.01953125,0.021484375,0.001953125,0.0,0.0,0.0
58516638,46601,0,1.001953125,-0.025390625,0.01171875,-0.013671875,0.0,0.0,0.0
58517888,46602,0,1.0078125,-0.029296875,0.017578125,-0.01171875,0.0,0.0,0.0
58519139,46603,0,1.005859375,-0.02734375,0.01171875,-0.015625,0.0,0.0,0.0
58520391,46604,0,1.00390625,-0.03125,0.005859375,-0.025390625,0.0,0.0,0.0
58521641,46605,0,1.0078125,-0.0234375,0.013671875,-0.009765625,0.0,0.0,0.0
58522892,46606,0,1.005859375,-0.025390625,0.013671875,-0.01171875,0.0,0.0,0.0
58524142,46607,0,1.0,-0.02734375,0.01171875,-0.015625,0.0,0.0,0.0
58525393,46608,0,1.001953125,-0.02734375,0.009765625,-0.017578125,0.0,0.0,0.0
58526645,46609,0,1.005859375,-0.0234375,0.009765625,-0.013671875,0.0,0.0,0.0
58527895,46610,0,1.00390625,-0.02734375,0.015625,-0.01171875,0.0,0.0,0.0
58529147,46611,0,1.005859375,-0.025390625,0.017578125,-0.0078125,0.0,0.0,0.0
58530397,46612,0,1.001953125,-0.02734375,0.015625,-0.01171875,0.0,0.0,0.0
58531649,46613,0,0.998046875,-0.02734375,0.009765625,-0.017578125,0.0,0.0,0.0
58532899,46614,0,1.005859375,-0.0234375,0.01953125,-0.00390625,0.0,0.0,0.0
58534149,46615,0,1.00390625,-0.029296875,0.021484375,-0.0078125,0.0,0.0,0.0
58535399,46616,0,0.998046875,-0.021484375,0.015625,-0.005859375,0.0,0.0,0.0
58536650,46617,0,1.0,-0.03515625,0.013671875,-0.021484375,0.0,0.0,0.0
58537902,46618,0,1.001953125,-0.03125,0.015625,-0.015625,0.0,0.0,0.0
58539153,46619,0,1.001953125,-0.01953125,0.015625,-0.00390625,0.0,0.0,0.0
58540404,46620,0,0.998046875,-0.0234375,0.013671875,-0.009765625,0.0,0.0,0.0
58541654,46621,0,0.998046875,-0.02734375,0.021484375,-0.005859375,0.0,0.0,0.0
58542904,46622,0,1.00390625,-0.0234375,0.01171875,-0.01171875,0.0,0.0,0.0
58544155,46623,0,1.001953125,-0.025390625,0.017578125,-0.0078125,0.0,0.0,0.0
58545407,46624,0,1.001953125,-0.025390625,0.01953125,-0.005859375,0.0,0.0,0.0
58546657,46625,0,1.005859375,-0.0234375,0.017578125,-0.005859375,0.0,0.0,0.0
58547909,46626,0,1.00390625,-0.025390625,0.017578125,-0.0078125,0.0,0.0,0.0
58549159,46627,0,1.00390625,-0.0234375,0.017578125,-0.005859375,0.0,0.0,0.0
58550409,46628,0,1.005859375,-0.025390625,0.017578125,-0.0078125,0.0,0.0,0.0
58551661,46629,0,1.0,-0.0234375,0.01953125,-0.00390625,0.0,0.0,0.0
58552911,46630,0,1.005859375,-0.02734375,0.009765625,-0.017578125,0.0,0.0,0.0
58554161,46631,0,1.00390625,-0.025390625,0.015625,-0.009765625,0.0,0.0,0.0
58555411,46632,0,1.001953125,-0.02734375,0.015625,-0.01171875,0.0,0.0,0.0
58556663,46633,0,1.00390625,-0.02734375,0.01953125,-0.0078125,0.0,0.0,0.0
58557913,46634,0,1.005859375,-0.029296875,0.015625,-0.013671875,0.0,0.0,0.0
58559164,46635,0,1.001953125,-0.02734375,0.021484375,-0.005859375,0.0,0.0,0.0
58560415,46636,0,1.0078125,-0.0234375,0.01171875,-0.01171875,0.0,0.0,0.0
58561666,46637,0,1.001953125,-0.021484375,0.017578125,-0.00390625,0.0,0.0,0.0
58562916,46638,0,1.01953125,-0.025390625,0.017578125,-0.0078125,0.0,0.0,0.0
58564167,46639,0,1.015625,-0.025390625,0.013671875,-0.01171875,0.0,0.0,0.0
58565417,46640,0,1.009765625,-0.0234375,-0.025390625,-0.048828125,0.0,0.0,0.0
58566668,46641,0,1.00390625,-0.021484375,0.017578125,-0.00390625,0.0,0.0,0.0
58567920,46642,0,0.998046875,-0.021484375,0.017578125,-0.00390625,0.0,0.0,0.0
58569171,46643,0,1.005859375,-0.02734375,0.013671875,-0.013671875,0.0,0.0,0.0
58570421,46644,0,1.005859375,-0.0234375,0.017578125,-0.005859375,0.0,0.0,0.0
58571672,46645,0,1.0,-0.02734375,0.013671875,-0.013671875,0.0,0.0,0.0
58572924,46646,0,1.001953125,-0.017578125,0.017578125,0.0,0.0,0.0,0.0
58574174,46647,0,1.001953125,-0.02734375,0.013671875,-0.013671875,0.0,0.0,0.0
58575425,46648,0,1.005859375,-0.02734375,0.015625,-0.01171875,0.0,0.0,0.0
58576677,46649,0,1.0078125,-0.02734375,0.013671875,-0.013671875,0.0,0.0,0.0
58577927,46650,0,1.005859375,-0.025390625,0.015625,-0.009765625,0.0,0.0,0.0
58579177,46651,0,1.00390625,-0.025390625,0.017578125,-0.0078125,0.0,0.0,0.0
58580429,46652,0,1.0,-0.025390625,0.015625,-0.009765625,0.0,0.0,0.0
58581679,46653,0,1.005859375,-0.021484375,0.017578125,-0.00390625,0.0,0.0,0.0
58582931,46654,0,1.0078125,-0.025390625,0.021484375,-0.00390625,0.0,0.0,0.0
58584181,46655,0,1.001953125,-0.02734375,0.01171875,-0.015625,0.0,0.0,0.0
58585431,46656,0,1.005859375,-0.02734375,0.017578125,-0.009765625,0.0,0.0,0.0
58586683,46657,0,1.009765625,-0.029296875,0.013671875,-0.015625,0.0,0.0,0.0
58587933,46658,0,1.001953125,-0.025390625,0.017578125,-0.0078125,0.0,0.0,0.0
58589183,46659,0,0.998046875,-0.025390625,0.015625,-0.009765625,0.0,0.0,0.0
58590434,46660,0,1.0,-0.03125,0.017578125,-0.013671875,0.0,0.0,0.0
58591685,46661,0,1.0078125,-0.021484375,0.017578125,-0.00390625,0.0,0.0,0.0
58592936,46662,0,1.009765625,-0.025390625,0.017578125,-0.0078125,0.0,0.0,0.0
58594186,46663,0,0.998046875,-0.03125,0.01953125,-0.01171875,0.0,0.0,0.0
58595437,46664,0,1.01171875,-0.02734375,0.017578125,-0.009765625,0.0,0.0,0.0
58596687,46665,0,1.001953125,-0.02734375,0.0078125,-0.01953125,0.0,0.0,0.0
58597937,46666,0,1.005859375,-0.029296875,0.017578125,-0.01171875,0.0,0.0,0.0
58599188,46667,0,1.00390625,-0.029296875,0.0078125,-0.021484375,0.0,0.0,0.0
58600440,46668,0,1.00390625,-0.02734375,0.01171875,-0.015625,0.0,0.0,0.0
58601690,46669,0,0.99609375,-0.025390625,0.009765625,-0.015625,0.0,0.0,0.0
58602942,46670,0,1.001953125,-0.03125,0.01171875,-0.01953125,0.0,0.0,0.0
58604193,46671,0,1.001953125,-0.02734375,0.01953125,-0.0078125,0.0,0.0,0.0
58605445,46672,0,1.001953125,-0.029296875,0.01171875,-0.017578125,0.0,0.0,0.0
58606695,46673,0,1.0078125,-0.02734375,0.015625,-0.01171875,0.0,0.0,0.0
58607947,46674,0,1.005859375,-0.029296875,0.015625,-0.013671875,0.0,0.0,0.0
58609198,46675,0,1.005859375,-0.021484375,0.009765625,-0.01171875,0.0,0.0,0.0
58610450,46676,0,1.00390625,-0.02734375,0.01171875,-0.015625,0.0,0.0,0.0
58611700,46677,0,1.0078125,-0.02734375,0.015625,-0.01171875,0.0,0.0,0.0
58612952,46678,0,1.0078125,-0.029296875,0.025390625,-0.00390625,0.0,0.0,0.0
58614203,46679,0,1.0078125,-0.02734375,0.01953125,-0.0078125,0.0,0.0,0.0
58615454,46680,0,1.00390625,-0.029296875,0.005859375,-0.0234375,0.0,0.0,0.0
58616705,46681,0,1.001953125,-0.0234375,0.01953125,-0.00390625,0.0,0.0,0.0
58617957,46682,0,1.005859375,-0.0234375,0.013671875,-0.009765625,0.0,0.0,0.0
58619207,46683,0,1.009765625,-0.0234375,0.01171875,-0.01171875,0.0,0.0,0.0
58620459,46684,0,1.00390625,-0.0234375,0.015625,-0.0078125,0.0,0.0,0.0
58621709,46685,0,1.001953125,-0.025390625,0.013671875,-0.01171875,0.0,0.0,0.0
58622959,46686,0,0.998046875,-0.0234375,0.021484375,-0.001953125,0.0,0.0,0.0
58624209,46687,0,0.998046875,-0.021484375,0.01171875,-0.009765625,0.0,0.0,0.0
58625459,46688,0,1.009765625,-0.033203125,0.015625,-0.017578125,0.0,0.0,0.0
58626711,46689,0,1.0078125,-0.029296875,0.01953125,-0.009765625,0.0,0.0,0.0
58627961,46690,0,0.998046875,-0.02734375,0.009765625,-0.017578125,0.0,0.0,0.0
58629213,46691,0,1.0,-0.025390625,0.01171875,-0.013671875,0.0,0.0,0.0
58630464,46692,0,1.0078125,-0.025390625,0.015625,-0.009765625,0.0,0.0,0.0
58631715,46693,0,1.00390625,-0.0234375,0.015625,-0.0078125,0.0,0.0,0.0
58632966,46694,0,1.00390625,-0.025390625,0.015625,-0.009765625,0.0,0.0,0.0
58634216,46695,0,1.005859375,-0.02734375,0.015625,-0.01171875,0.0,0.0,0.0
58635467,46696,0,1.001953125,-0.029296875,0.013671875,-0.015625,0.0,0.0,0.0
58636718,46697,0,1.0,-0.0234375,0.013671875,-0.009765625,0.0,0.0,0.0
58637968,46698,0,1.005859375,-0.0234375,0.021484375,-0.001953125,0.0,0.0,0.0
58639219,46699,0,1.00390625,-0.025390625,0.021484375,-0.00390625,0.0,0.0,0.0
58640470,46700,0,1.0078125,-0.03125,0.017578125,-0.013671875,0.0,0.0,0.0
58641721,46701,0,1.0,-0.0234375,0.01171875,-0.01171875,0.0,0.0,0.0
58642971,46702,0,1.005859375,-0.025390625,0.01171875,-0.013671875,0.0,0.0,0.0
58644223,46703,0,1.005859375,-0.02734375,0.015625,-0.01171875,0.0,0.0,0.0
58645473,46704,0,1.001953125,-0.0234375,0.01171875,-0.01171875,0.0,0.0,0.0
58646723,46705,0,1.005859375,-0.0234375,0.01171875,-0.01171875,0.0,0.0,0.0
58647975,46706,0,1.005859375,-0.0234375,0.013671875,-0.009765625,0.0,0.0,0.0
58649226,46707,0,1.001953125,-0.02734375,0.015625,-0.01171875,0.0,0.0,0.0
58650476,46708,0,0.998046875,-0.03125,0.017578125,-0.013671875,0.0,0.0,0.0
58651728,46709,0,1.001953125,-0.025390625,0.01953125,-0.005859375,0.0,0.0,0.0
58652979,46710,0,1.001953125,-0.0234375,0.013671875,-0.009765625,0.0,0.0,0.0
58654229,46711,0,1.001953125,-0.02734375,0.017578125,-0.009765625,0.0,0.0,0.0
58655481,46712,0,1.001953125,-0.025390625,0.01953125,-0.005859375,0.0,0.0,0.0
58656731,46713,0,1.005859375,-0.02734375,0.017578125,-0.009765625,0.0,0.0,0.0
58657981,46714,0,1.00390625,-0.025390625,0.01953125,-0.005859375,0.0,0.0,0.0
58659232,46715,0,1.00390625,-0.025390625,0.009765625,-0.015625,0.0,0.0,0.0
58660483,46716,0,1.005859375,-0.03125,0.013671875,-0.017578125,0.0,0.0,0.0
58661734,46717,0,1.001953125,-0.02734375,0.013671875,-0.013671875,0.0,0.0,0.0
58662986,46718,0,1.001953125,-0.0234375,0.013671875,-0.009765625,0.0,0.0,0.0
58664236,46719,0,1.001953125,-0.025390625,0.017578125,-0.0078125,0.0,0.0,0.0
58665486,46720,0,1.0,-0.02734375,0.01171875,-0.015625,0.0,0.0,0.0
58666737,46721,0,1.001953125,-0.025390625,0.017578125,-0.0078125,0.0,0.0,0.0
58667987,46722,0,1.001953125,-0.02734375,0.0078125,-0.01953125,0.0,0.0,0.0
58669238,46723,0,1.001953125,-0.025390625,0.015625,-0.009765625,0.0,0.0,0.0
58670489,46724,0,0.994140625,-0.029296875,0.021484375,-0.0078125,0.0,0.0,0.0
58671740,46725,0,1.009765625,-0.025390625,0.013671875,-0.01171875,0.0,0.0,0.0
58672991,46726,0,1.009765625,-0.01953125,0.01953125,0.0,0.0,0.0,0.0
58674241,46727,0,1.00390625,-0.025390625,0.015625,-0.009765625,0.0,0.0,0.0
58675492,46728,0,1.00390625,-0.021484375,0.015625,-0.005859375,0.0,0.0,0.0
58676744,46729,0,1.005859375,-0.02734375,0.015625,-0.01171875,0.0,0.0,0.0
58677994,46730,0,1.00390625,-0.02734375,0.021484375,-0.005859375,0.0,0.0,0.0
58679245,46731,0,1.00390625,-0.025390625,0.013671875,-0.01171875,0.0,0.0,0.0
58680496,46732,0,1.0,-0.03515625,0.01171875,-0.0234375,0.0,0.0,0.0
58681747,46733,0,1.00390625,-0.0234375,0.009765625,-0.013671875,0.0,0.0,0.0
58682998,46734,0,1.0,-0.0234375,0.01171875,-0.01171875,0.0,0.0,0.0
58684249,46735,0,1.0,-0.029296875,0.01953125,-0.009765625,0.0,0.0,0.0
58685499,46736,0,1.001953125,-0.0234375,0.021484375,-0.001953125,0.0,0.0,0.0
58686751,46737,0,1.00390625,-0.0234375,0.013671875,-0.009765625,0.0,0.0,0.0
58688002,46738,0,1.00390625,-0.029296875,0.009765625,-0.01953125,0.0,0.0,0.0
58689253,46739,0,1.009765625,-0.0234375,0.017578125,-0.005859375,0.0,0.0,0.0
58690503,46740,0,1.005859375,-0.02734375,0.021484375,-0.005859375,0.0,0.0,0.0
58691755,46741,0,1.0078125,-0.02734375,0.015625,-0.01171875,0.0,0.0,0.0
58693005,46742,0,1.00390625,-0.02734375,0.013671875,-0.013671875,0.0,0.0,0.0
58694256,46743,0,1.001953125,-0.025390625,0.015625,-0.009765625,0.0,0.0,0.0
58695506,46744,0,1.0,-0.0234375,0.013671875,-0.009765625,0.0,0.0,0.0
58696757,46745,0,0.99609375,-0.0234375,0.017578125,-0.005859375,0.0,0.0,0.0
58698008,46746,0,1.009765625,-0.0234375,0.013671875,-0.009765625,0.0,0.0,0.0
58699258,46747,0,1.0078125,-0.0234375,0.015625,-0.0078125,0.0,0.0,0.0
58700508,46748,0,1.009765625,-0.029296875,0.015625,-0.013671875,0.0,0.0,0.0
58701759,46749,0,1.005859375,-0.03125,0.009765625,-0.021484375,0.0,0.0,0.0
58703009,46750,0,0.998046875,-0.02734375,0.009765625,-0.017578125,0.0,0.0,0.0
58704259,46751,0,1.00390625,-0.029296875,0.017578125,-0.01171875,0.0,0.0,0.0
58705510,46752,0,1.001953125,-0.0234375,0.01171875,-0.01171875,0.0,0.0,0.0
58706762,46753,0,1.0,-0.02734375,0.01953125,-0.0078125,0.0,0.0,0.0
58708012,46754,0,1.001953125,-0.033203125,0.013671875,-0.01953125,0.0,0.0,0.0
58709271,46755,0,1.001953125,-0.029296875,0.013671875,-0.015625,0.0,0.0,0.0
58710521,46756,0,1.00390625,-0.025390625,0.015625,-0.009765625,0.0,0.0,0.0
58711773,46757,0,1.0078125,-0.03125,0.015625,-0.015625,0.0,0.0,0.0
58713023,46758,0,1.005859375,-0.02734375,0.021484375,-0.005859375,0.0,0.0,0.0
58714274,46759,0,1.0078125,-0.02734375,0.009765625,-0.017578125,0.0,0.0,0.0
58715525,46760,0,1.0078125,-0.03125,0.01953125,-0.01171875,0.0,0.0,0.0
58716776,46761,0,1.00390625,-0.02734375,0.015625,-0.01171875,0.0,0.0,0.0
58718026,46762,0,1.0078125,-0.029296875,0.0078125,-0.021484375,0.0,0.0,0.0
58719276,46763,0,1.0078125,-0.025390625,0.017578125,-0.0078125,0.0,0.0,0.0
58720527,46764,0,1.005859375,-0.029296875,0.021484375,-0.0078125,0.0,0.0,0.0
58721778,46765,0,1.0,-0.029296875,0.01171875,-0.017578125,0.0,0.0,0.0
58723029,46766,0,1.0078125,-0.02734375,0.013671875,-0.013671875,0.0,0.0,0.0
58724280,46767,0,1.015625,-0.025390625,0.013671875,-0.01171875,0.0,0.0,0.0
58725531,46768,0,1.009765625,-0.029296875,0.021484375,-0.0078125,0.0,0.0,0.0
58726783,46769,0,1.001953125,-0.033203125,0.01953125,-0.013671875,0.0,0.0,0.0
58728034,46770,0,1.005859375,-0.025390625,0.015625,-0.009765625,0.0,0.0,0.0
58729286,46771,0,1.00390625,-0.025390625,0.017578125,-0.0078125,0.0,0.0,0.0
58730537,46772,0,0.994140625,-0.03125,0.015625,-0.015625,0.0,0.0,0.0
58731789,46773,0,1.0,-0.029296875,0.021484375,-0.0078125,0.0,0.0,0.0
58733039,46774,0,1.001953125,-0.025390625,0.01953125,-0.005859375,0.0,0.0,0.0
58734289,46775,0,1.001953125,-0.025390625,0.013671875,-0.01171875,0.0,0.0,0.0
58735541,46776,0,1.0078125,-0.0234375,0.0078125,-0.015625,0.0,0.0,0.0
58736792,46777,0,1.00390625,-0.0234375,0.015625,-0.0078125,0.0,0.0,0.0
58738044,46778,0,1.001953125,-0.029296875,0.017578125,-0.01171875,0.0,0.0,0.0
58739294,46779,0,1.0,-0.025390625,0.013671875,-0.01171875,0.0,0.0,0.0
58740544,46780,0,1.001953125,-0.029296875,0.013671875,-0.015625,0.0,0.0,0.0
58741795,46781,0,1.0,-0.025390625,0.017578125,-0.0078125,0.0,0.0,0.0
58743045,46782,0,1.001953125,-0.025390625,0.009765625,-0.015625,0.0,0.0,0.0
58744295,46783,0,1.001953125,-0.02734375,0.01171875,-0.015625,0.0,0.0,0.0
58745546,46784,0,0.998046875,-0.0234375,0.015625,-0.0078125,0.0,0.0,0.0
58746797,46785,0,1.001953125,-0.029296875,0.017578125,-0.01171875,0.0,0.0,0.0
58748048,46786,0,1.013671875,-0.02734375,0.01171875,-0.015625,0.0,0.0,0.0
58749299,46787,0,1.015625,-0.02734375,0.021484375,-0.005859375,0.0,0.0,0.0
58750550,46788,0,1.0078125,-0.025390625,0.017578125,-0.0078125,0.0,0.0,0.0
58751800,46789,0,1.005859375,-0.0234375,0.005859375,-0.017578125,0.0,0.0,0.0
58753052,46790,0,1.001953125,-0.021484375,0.01953125,-0.001953125,0.0,0.0,0.0
58754303,46791,0,1.0,-0.0234375,0.01953125,-0.00390625,0.0,0.0,0.0
58755554,46792,0,1.0078125,-0.029296875,0.01953125,-0.009765625,0.0,0.0,0.0
58756805,46793,0,1.00390625,-0.029296875,0.021484375,-0.0078125,0.0,0.0,0.0
58758057,46794,0,1.00390625,-0.02734375,0.021484375,-0.005859375,0.0,0.0,0.0
58759308,46795,0,1.009765625,-0.02734375,0.01953125,-0.0078125,0.0,0.0,0.0
58760560,46796,0,1.009765625,-0.02734375,0.025390625,-0.001953125,0.0,0.0,0.0
58761811,46797,0,1.00390625,-0.0234375,0.01171875,-0.01171875,0.0,0.0,0.0
58763063,46798,0,1.001953125,-0.025390625,0.01953125,-0.005859375,0.0,0.0,0.0
58764314,46799,0,1.001953125,-0.02734375,0.015625,-0.01171875,0.0,0.0,0.0
58765565,46800,0,1.00390625,-0.0234375,0.017578125,-0.005859375,0.0,0.0,0.0
58766816,46801,0,1.00390625,-0.02734375,0.01953125,-0.0078125,0.0,0.0,0.0
58768066,46802,0,1.0078125,-0.02734375,0.015625,-0.01171875,0.0,0.0,0.0
58769318,46803,0,1.005859375,-0.025390625,-0.001953125,-0.02734375,0.0,0.0,0.0
58770569,46804,0,1.005859375,-0.02734375,0.01953125,-0.0078125,0.0,0.0,0.0
58771819,46805,0,1.00390625,-0.029296875,0.017578125,-0.01171875,0.0,0.0,0.0
58773070,46806,0,1.001953125,-0.03125,0.01953125,-0.01171875,0.0,0.0,0.0
58774321,46807,0,1.001953125,-0.029296875,0.017578125,-0.01171875,0.0,0.0,0.0
58775572,46808,0,1.005859375,-0.029296875,0.013671875,-0.015625,0.0,0.0,0.0
58776823,46809,0,1.0078125,-0.03125,0.013671875,-0.017578125,0.0,0.0,0.0
58778074,46810,0,1.005859375,-0.02734375,0.013671875,-0.013671875,0.0,0.0,0.0
58779325,46811,0,1.009765625,-0.0234375,0.009765625,-0.013671875,0.0,0.0,0.0
58780575,46812,0,1.0,-0.025390625,0.0234375,-0.001953125,0.0,0.0,0.0
58781825,46813,0,1.005859375,-0.029296875,0.017578125,-0.01171875,0.0,0.0,0.0
58783076,46814,0,1.0,-0.03125,0.017578125,-0.013671875,0.0,0.0,0.0
58784326,46815,0,1.0234375,-0.025390625,0.013671875,-0.01171875,0.0,0.0,0.0
58785577,46816,0,1.0,-0.02734375,0.01171875,-0.015625,0.0,0.0,0.0
58786828,46817,0,1.00390625,-0.02734375,0.01171875,-0.015625,0.0,0.0,0.0
58788078,46818,0,1.0,-0.02734375,0.015625,-0.01171875,0.0,0.0,0.0
58789329,46819,0,1.005859375,-0.02734375,0.017578125,-0.009765625,0.0,0.0,0.0
58790581,46820,0,1.005859375,-0.021484375,0.013671875,-0.0078125,0.0,0.0,0.0
58791833,46821,0,1.00390625,-0.03125,0.017578125,-0.013671875,0.0,0.0,0.0
58793083,46822,0,1.00390625,-0.029296875,0.015625,-0.013671875,0.0,0.0,0.0
58794333,46823,0,1.00390625,-0.025390625,0.017578125,-0.0078125,0.0,0.0,0.0
58795584,46824,0,1.005859375,-0.025390625,0.015625,-0.009765625,0.0,0.0,0.0
58796835,46825,0,1.005859375,-0.029296875,0.0078125,-0.021484375,0.0,0.0,0.0
58798085,46826,0,1.0,-0.025390625,0.015625,-0.009765625,0.0,0.0,0.0
58799336,46827,0,1.001953125,-0.029296875,0.013671875,-0.015625,0.0,0.0,0.0
58800587,46828,0,1.00390625,-0.0234375,0.001953125,-0.021484375,0.0,0.0,0.0
58801838,46829,0,1.009765625,-0.025390625,0.0078125,-0.017578125,0.0,0.0,0.0
58803090,46830,0,0.998046875,-0.029296875,0.01953125,-0.009765625,0.0,0.0,0.0
58804341,46831,0,0.99609375,-0.03125,0.0078125,-0.0234375,0.0,0.0,0.0
58805592,46832,0,1.005859375,-0.02734375,0.01953125,-0.0078125,0.0,0.0,0.0
58806844,46833,0,0.998046875,-0.0234375,0.015625,-0.0078125,0.0,0.0,0.0
58808095,46834,0,1.0,-0.029296875,0.0,-0.029296875,0.0,0.0,0.0
58809346,46835,0,1.009765625,-0.0234375,0.013671875,-0.009765625,0.0,0.0,0.0
58810597,46836,0,1.00390625,-0.0234375,0.015625,-0.0078125,0.0,0.0,0.0
58811849,46837,0,1.001953125,-0.0234375,0.015625,-0.0078125,0.0,0.0,0.0
58813099,46838,0,0.99609375,-0.021484375,0.01171875,-0.009765625,0.0,0.0,0.0
58814351,46839,0,1.00390625,-0.029296875,0.013671875,-0.015625,0.0,0.0,0.0
58815602,46840,0,0.998046875,-0.025390625,0.015625,-0.009765625,0.0,0.0,0.0
58816854,46841,0,1.005859375,-0.0234375,0.021484375,-0.001953125,0.0,0.0,0.0
58818104,46842,0,1.005859375,-0.02734375,0.01171875,-0.015625,0.0,0.0,0.0
58819354,46843,0,1.009765625,-0.021484375,0.017578125,-0.00390625,0.0,0.0,0.0
58820605,46844,0,1.00390625,-0.025390625,0.013671875,-0.01171875,0.0,0.0,0.0
58821855,46845,0,1.009765625,-0.02734375,0.015625,-0.01171875,0.0,0.0,0.0
58823107,46846,0,1.001953125,-0.025390625,0.01953125,-0.005859375,0.0,0.0,0.0
58824358,46847,0,1.001953125,-0.029296875,0.017578125,-0.01171875,0.0,0.0,0.0
58825609,46848,0,0.99609375,-0.025390625,0.017578125,-0.0078125,0.0,0.0,0.0
58826859,46849,0,1.005859375,-0.02734375,0.01953125,-0.0078125,0.0,0.0,0.0
58828111,46850,0,1.009765625,-0.02734375,0.01953125,-0.0078125,0.0,0.0,0.0
58829362,46851,0,1.00390625,-0.029296875,0.01171875,-0.017578125,0.0,0.0,0.0
58830613,46852,0,1.017578125,-0.029296875,0.01953125,-0.009765625,0.0,0.0,0.0
58831865,46853,0,1.0078125,-0.033203125,0.01171875,-0.021484375,0.0,0.0,0.0
58833115,46854,0,0.99609375,-0.029296875,0.017578125,-0.01171875,0.0,0.0,0.0
58834365,46855,0,1.0078125,-0.029296875,0.009765625,-0.01953125,0.0,0.0,0.0
58835617,46856,0,1.005859375,-0.02734375,0.015625,-0.01171875,0.0,0.0,0.0
58836867,46857,0,1.009765625,-0.021484375,0.015625,-0.005859375,0.0,0.0,0.0
58838118,46858,0,1.0,-0.0234375,0.017578125,-0.005859375,0.0,0.0,0.0
58839369,46859,0,1.0078125,-0.02734375,0.015625,-0.01171875,0.0,0.0,0.0
58840620,46860,0,1.009765625,-0.021484375,0.01953125,-0.001953125,0.0,0.0,0.0
58841871,46861,0,1.001953125,-0.029296875,0.021484375,-0.0078125,0.0,0.0,0.0
58843123,46862,0,1.005859375,-0.029296875,0.017578125,-0.01171875,0.0,0.0,0.0
58844374,46863,0,1.001953125,-0.025390625,0.015625,-0.009765625,0.0,0.0,0.0
58845624,46864,0,1.00390625,-0.029296875,0.009765625,-0.01953125,0.0,0.0,0.0
58846875,46865,0,1.001953125,-0.029296875,0.015625,-0.013671875,0.0,0.0,0.0
58848125,46866,0,1.00390625,-0.025390625,0.015625,-0.009765625,0.0,0.0,0.0
58849375,46867,0,1.009765625,-0.02734375,0.017578125,-0.009765625,0.0,0.0,0.0
58850626,46868,0,1.00390625,-0.029296875,0.021484375,-0.0078125,0.0,0.0,0.0
58851877,46869,0,1.005859375,-0.02734375,0.017578125,-0.009765625,0.0,0.0,0.0
58853129,46870,0,1.0078125,-0.029296875,0.009765625,-0.01953125,0.0,0.0,0.0
58854380,46871,0,1.0078125,-0.02734375,0.0234375,-0.00390625,0.0,0.0,0.0
58855630,46872,0,1.001953125,-0.02734375,0.013671875,-0.013671875,0.0,0.0,0.0
58856881,46873,0,1.001953125,-0.0234375,0.0078125,-0.015625,0.0,0.0,0.0
58858133,46874,0,1.0078125,-0.021484375,0.01171875,-0.009765625,0.0,0.0,0.0
58859384,46875,0,1.005859375,-0.025390625,0.0234375,-0.001953125,0.0,0.0,0.0
58860634,46876,0,1.017578125,-0.029296875,0.013671875,-0.015625,0.0,0.0,0.0
58861886,46877,0,1.00390625,-0.029296875,0.005859375,-0.0234375,0.0,0.0,0.0
58863136,46878,0,0.998046875,-0.0234375,0.013671875,-0.009765625,0.0,0.0,0.0
58864386,46879,0,1.005859375,-0.0234375,0.021484375,-0.001953125,0.0,0.0,0.0
58865638,46880,0,1.001953125,-0.025390625,0.013671875,-0.01171875,0.0,0.0,0.0
58866888,46881,0,1.0,-0.0234375,0.017578125,-0.005859375,0.0,0.0,0.0
58868139,46882,0,1.009765625,-0.025390625,0.015625,-0.009765625,0.0,0.0,0.0
58869391,46883,0,1.005859375,-0.02734375,0.015625,-0.01171875,0.0,0.0,0.0
58870641,46884,0,0.99609375,-0.0234375,0.017578125,-0.005859375,0.0,0.0,0.0
58871892,46885,0,0.998046875,-0.03125,0.017578125,-0.013671875,0.0,0.0,0.0
58873142,46886,0,1.001953125,-0.029296875,0.017578125,-0.01171875,0.0,0.0,0.0
58874393,46887,0,0.998046875,-0.029296875,0.01953125,-0.009765625,0.0,0.0,0.0
58875645,46888,0,1.0,-0.029296875,0.017578125,-0.01171875,0.0,0.0,0.0
58876895,46889,0,1.0,-0.0234375,0.013671875,-0.009765625,0.0,0.0,0.0
58878147,46890,0,0.998046875,-0.02734375,0.017578125,-0.009765625,0.0,0.0,0.0
58879397,46891,0,1.00390625,-0.02734375,0.021484375,-0.005859375,0.0,0.0,0.0
58880649,46892,0,1.005859375,-0.0234375,0.01171875,-0.01171875,0.0,0.0,0.0
58881899,46893,0,0.998046875,-0.0234375,0.021484375,-0.001953125,0.0,0.0,0.0
58883149,46894,0,0.998046875,-0.0234375,0.015625,-0.0078125,0.0,0.0,0.0
58884399,46895,0,1.005859375,-0.025390625,0.009765625,-0.015625,0.0,0.0,0.0
58885650,46896,0,1.0,-0.0234375,0.017578125,-0.005859375,0.0,0.0,0.0
58886902,46897,0,1.005859375,-0.0234375,0.021484375,-0.001953125,0.0,0.0,0.0
58888153,46898,0,1.001953125,-0.029296875,0.015625,-0.013671875,0.0,0.0,0.0
58889404,46899,0,0.998046875,-0.02734375,0.017578125,-0.009765625,0.0,0.0,0.0
58890654,46900,0,1.0,-0.02734375,0.009765625,-0.017578125,0.0,0.0,0.0
58891904,46901,0,1.0,-0.02734375,0.01171875,-0.015625,0.0,0.0,0.0
58893155,46902,0,0.99609375,-0.025390625,0.01953125,-0.005859375,0.0,0.0,0.0
58894407,46903,0,1.0078125,-0.0234375,0.01953125,-0.00390625,0.0,0.0,0.0
58895657,46904,0,1.005859375,-0.029296875,0.015625,-0.013671875,0.0,0.0,0.0
58896909,46905,0,1.005859375,-0.025390625,0.021484375,-0.00390625,0.0,0.0,0.0
58898159,46906,0,1.005859375,-0.029296875,0.013671875,-0.015625,0.0,0.0,0.0
58899409,46907,0,1.001953125,-0.021484375,0.017578125,-0.00390625,0.0,0.0,0.0
58900661,46908,0,1.0078125,-0.025390625,0.013671875,-0.01171875,0.0,0.0,0.0
58901911,46909,0,1.0078125,-0.02734375,0.021484375,-0.005859375,0.0,0.0,0.0
58903161,46910,0,1.0,-0.029296875,0.017578125,-0.01171875,0.0,0.0,0.0
58904411,46911,0,1.00390625,-0.029296875,0.005859375,-0.0234375,0.0,0.0,0.0
58905663,46912,0,1.00390625,-0.03125,0.013671875,-0.017578125,0.0,0.0,0.0
58906913,46913,0,0.998046875,-0.0234375,0.013671875,-0.009765625,0.0,0.0,0.0
58908164,46914,0,1.00390625,-0.03125,0.017578125,-0.013671875,0.0,0.0,0.0
58909415,46915,0,1.0,-0.029296875,0.017578125,-0.01171875,0.0,0.0,0.0
58910666,46916,0,1.015625,-0.03125,0.017578125,-0.013671875,0.0,0.0,0.0
58911916,46917,0,1.0078125,-0.025390625,0.0234375,-0.001953125,0.0,0.0,0.0
58913167,46918,0,1.00390625,-0.0234375,0.0078125,-0.015625,0.0,0.0,0.0
58914417,46919,0,1.001953125,-0.0234375,0.017578125,-0.005859375,0.0,0.0,0.0
58915668,46920,0,1.005859375,-0.02734375,0.015625,-0.01171875,0.0,0.0,0.0
58916920,46921,0,0.998046875,-0.02734375,0.013671875,-0.013671875,0.0,0.0,0.0
58918171,46922,0,1.005859375,-0.03125,0.013671875,-0.017578125,0.0,0.0,0.0
58919421,46923,0,0.998046875,-0.033203125,0.01953125,-0.013671875,0.0,0.0,0.0
58920672,46924,0,1.001953125,-0.029296875,0.013671875,-0.015625,0.0,0.0,0.0
58921924,46925,0,1.00390625,-0.0234375,0.015625,-0.0078125,0.0,0.0,0.0
58923174,46926,0,1.005859375,-0.025390625,0.021484375,-0.00390625,0.0,0.0,0.0
58924425,46927,0,1.005859375,-0.02734375,0.015625,-0.01171875,0.0,0.0,0.0
58925677,46928,0,1.0078125,-0.029296875,0.015625,-0.013671875,0.0,0.0,0.0
58926927,46929,0,0.998046875,-0.025390625,0.021484375,-0.00390625,0.0,0.0,0.0
58928177,46930,0,1.0078125,-0.02734375,0.0078125,-0.01953125,0.0,0.0,0.0
58929429,46931,0,1.0078125,-0.0234375,0.013671875,-0.009765625,0.0,0.0,0.0
58930679,46932,0,1.0078125,-0.0234375,0.015625,-0.0078125,0.0,0.0,0.0
58931931,46933,0,1.005859375,-0.0234375,0.0078125,-0.015625,0.0,0.0,0.0
58933181,46934,0,1.0078125,-0.02734375,0.021484375,-0.005859375,0.0,0.0,0.0
58934431,46935,0,1.0078125,-0.025390625,0.01953125,-0.005859375,0.0,0.0,0.0
58935683,46936,0,1.0,-0.025390625,0.01171875,-0.013671875,0.0,0.0,0.0
58936933,46937,0,1.00390625,-0.02734375,0.005859375,-0.021484375,0.0,0.0,0.0
58938183,46938,0,1.0,-0.029296875,0.013671875,-0.015625,0.0,0.0,0.0
58939434,46939,0,1.0078125,-0.025390625,0.017578125,-0.0078125,0.0,0.0,0.0
58940685,46940,0,1.001953125,-0.01953125,0.01171875,-0.0078125,0.0,0.0,0.0
58941936,46941,0,0.99609375,-0.0234375,0.013671875,-0.009765625,0.0,0.0,0.0
58943186,46942,0,1.005859375,-0.03125,0.009765625,-0.021484375,0.0,0.0,0.0
58944437,46943,0,1.009765625,-0.02734375,0.025390625,-0.001953125,0.0,0.0,0.0
58945687,46944,0,1.0078125,-0.025390625,0.021484375,-0.00390625,0.0,0.0,0.0
58946937,46945,0,1.0078125,-0.025390625,0.01953125,-0.005859375,0.0,0.0,0.0
58948188,46946,0,1.005859375,-0.0234375,0.015625,-0.0078125,0.0,0.0,0.0
58949440,46947,0,1.0,-0.025390625,0.013671875,-0.01171875,0.0,0.0,0.0
58950690,46948,0,1.00390625,-0.02734375,0.015625,-0.01171875,0.0,0.0,0.0
58951942,46949,0,1.00390625,-0.02734375,0.009765625,-0.017578125,0.0,0.0,0.0
58953193,46950,0,1.001953125,-0.02734375,0.017578125,-0.009765625,0.0,0.0,0.0
58954445,46951,0,0.99609375,-0.025390625,0.013671875,-0.01171875,0.0,0.0,0.0
58955695,46952,0,1.005859375,-0.02734375,0.013671875,-0.013671875,0.0,0.0,0.0
58956947,46953,0,1.001953125,-0.021484375,0.013671875,-0.0078125,0.0,0.0,0.0
58958198,46954,0,1.00390625,-0.0234375,0.017578125,-0.005859375,0.0,0.0,0.0
58959450,46955,0,1.0078125,-0.025390625,0.01171875,-0.013671875,0.0,0.0,0.0
58960700,46956,0,1.009765625,-0.029296875,0.017578125,-0.01171875,0.0,0.0,0.0
58961952,46957,0,0.994140625,-0.025390625,0.01171875,-0.013671875,0.0,0.0,0.0
58963203,46958,0,1.001953125,-0.029296875,0.009765625,-0.01953125,0.0,0.0,0.0
58964454,46959,0,1.0078125,-0.0234375,0.015625,-0.0078125,0.0,0.0,0.0
58965705,46960,0,1.005859375,-0.021484375,0.009765625,-0.01171875,0.0,0.0,0.0
58966957,46961,0,1.00390625,-0.0234375,0.009765625,-0.013671875,0.0,0.0,0.0
58968207,46962,0,1.001953125,-0.0234375,0.013671875,-0.009765625,0.0,0.0,0.0
58969459,46963,0,1.00390625,-0.021484375,0.009765625,-0.01171875,0.0,0.0,0.0
58970709,46964,0,1.001953125,-0.025390625,0.009765625,-0.015625,0.0,0.0,0.0
58971959,46965,0,1.00390625,-0.025390625,0.015625,-0.009765625,0.0,0.0,0.0
58973209,46966,0,0.998046875,-0.029296875,0.015625,-0.013671875,0.0,0.0,0.0
58974459,46967,0,1.00390625,-0.021484375,0.01953125,-0.001953125,0.0,0.0,0.0
58975711,46968,0,1.001953125,-0.02734375,0.013671875,-0.013671875,0.0,0.0,0.0
58976961,46969,0,0.998046875,-0.029296875,0.013671875,-0.015625,0.0,0.0,0.0
58978213,46970,0,1.001953125,-0.025390625,0.015625,-0.009765625,0.0,0.0,0.0
58979464,46971,0,1.0078125,-0.01953125,0.021484375,0.001953125,0.0,0.0,0.0
58980715,46972,0,1.00390625,-0.0234375,0.009765625,-0.013671875,0.0,0.0,0.0
58981966,46973,0,1.005859375,-0.025390625,0.017578125,-0.0078125,0.0,0.0,0.0
58983216,46974,0,0.998046875,-0.0234375,0.013671875,-0.009765625,0.0,0.0,0.0
58984467,46975,0,1.0078125,-0.02734375,0.017578125,-0.009765625,0.0,0.0,0.0
58985718,46976,0,1.001953125,-0.025390625,0.01171875,-0.013671875,0.0,0.0,0.0
58986968,46977,0,0.99609375,-0.025390625,0.017578125,-0.0078125,0.0,0.0,0.0
58988219,46978,0,1.001953125,-0.025390625,0.02734375,0.001953125,0.0,0.0,0.0
58989470,46979,0,1.00390625,-0.025390625,0.017578125,-0.0078125,0.0,0.0,0.0
58990721,46980,0,1.005859375,-0.025390625,0.009765625,-0.015625,0.0,0.0,0.0
58991971,46981,0,1.01171875,-0.03125,0.021484375,-0.009765625,0.0,0.0,0.0
58993223,46982,0,1.01171875,-0.029296875,0.017578125,-0.01171875,0.0,0.0,0.0
58994473,46983,0,1.009765625,-0.02734375,0.015625,-0.01171875,0.0,0.0,0.0
58995723,46984,0,1.0078125,-0.025390625,0.01171875,-0.013671875,0.0,0.0,0.0
58996975,46985,0,1.005859375,-0.033203125,0.015625,-0.017578125,0.0,0.0,0.0
58998226,46986,0,0.994140625,-0.02734375,0.013671875,-0.013671875,0.0,0.0,0.0
58999476,46987,0,0.99609375,-0.025390625,0.013671875,-0.01171875,0.0,0.0,0.0
59000728,46988,0,1.0078125,-0.0234375,0.021484375,-0.001953125,0.0,0.0,0.0
59001979,46989,0,1.00390625,-0.02734375,0.01171875,-0.015625,0.0,0.0,0.0
59003229,46990,0,1.0,-0.0234375,0.015625,-0.0078125,0.0,0.0,0.0
59004481,46991,0,1.005859375,-0.02734375,0.01953125,-0.0078125,0.0,0.0,0.0
59005731,46992,0,1.0,-0.0234375,0.017578125,-0.005859375,0.0,0.0,0.0
59006981,46993,0,1.001953125,-0.029296875,0.015625,-0.013671875,0.0,0.0,0.0
59008232,46994,0,1.0,-0.029296875,0.01171875,-0.017578125,0.0,0.0,0.0
59009483,46995,0,1.009765625,-0.029296875,0.013671875,-0.015625,0.0,0.0,0.0
59010734,46996,0,1.005859375,-0.02734375,0.01953125,-0.0078125,0.0,0.0,0.0
59011986,46997,0,1.00390625,-0.02734375,0.015625,-0.01171875,0.0,0.0,0.0
59013236,46998,0,1.0078125,-0.02734375,0.01171875,-0.015625,0.0,0.0,0.0
59014486,46999,0,0.99609375,-0.0234375,0.0078125,-0.015625,0.0,0.0,0.0
59015737,47000,0,1.0078125,-0.03125,0.01171875,-0.01953125,0.0,0.0,0.0
59016987,47001,0,1.005859375,-0.025390625,0.01953125,-0.005859375,0.0,0.0,0.0
59018238,47002,0,1.013671875,-0.0234375,0.015625,-0.0078125,0.0,0.0,0.0
59019489,47003,0,1.00390625,-0.025390625,0.013671875,-0.01171875,0.0,0.0,0.0
59020740,47004,0,1.009765625,-0.02734375,0.01171875,-0.015625,0.0,0.0,0.0
59021991,47005,0,1.0,-0.021484375,0.009765625,-0.01171875,0.0,0.0,0.0
59023241,47006,0,1.009765625,-0.025390625,0.015625,-0.009765625,0.0,0.0,0.0
59024492,47007,0,1.005859375,-0.02734375,0.015625,-0.01171875,0.0,0.0,0.0
59025744,47008,0,0.998046875,-0.03125,0.0234375,-0.0078125,0.0,0.0,0.0
59026994,47009,0,1.0,-0.02734375,0.015625,-0.01171875,0.0,0.0,0.0
59028245,47010,0,1.001953125,-0.0234375,0.013671875,-0.009765625,0.0,0.0,0.0
59029496,47011,0,1.005859375,-0.025390625,0.013671875,-0.01171875,0.0,0.0,0.0
59030747,47012,0,1.0,-0.0234375,0.015625,-0.0078125,0.0,0.0,0.0
59031998,47013,0,1.001953125,-0.0234375,0.01953125,-0.00390625,0.0,0.0,0.0
59033249,47014,0,1.001953125,-0.0234375,0.0078125,-0.015625,0.0,0.0,0.0
59034499,47015,0,1.0,-0.03125,0.01171875,-0.01953125,0.0,0.0,0.0
59035751,47016,0,0.99609375,-0.02734375,0.01171875,-0.015625,0.0,0.0,0.0
59037002,47017,0,1.001953125,-0.02734375,0.013671875,-0.013671875,0.0,0.0,0.0
59038253,47018,0,1.005859375,-0.03125,0.009765625,-0.021484375,0.0,0.0,0.0
59039503,47019,0,1.009765625,-0.025390625,0.017578125,-0.0078125,0.0,0.0,0.0
59040755,47020,0,1.0078125,-0.037109375,0.01953125,-0.017578125,0.0,0.0,0.0
59042005,47021,0,1.009765625,-0.02734375,0.013671875,-0.013671875,0.0,0.0,0.0
59043256,47022,0,1.005859375,-0.029296875,0.01171875,-0.017578125,0.0,0.0,0.0
59044506,47023,0,1.009765625,-0.029296875,0.0078125,-0.021484375,0.0,0.0,0.0
59045757,47024,0,0.994140625,-0.025390625,0.009765625,-0.015625,0.0,0.0,0.0
59047008,47025,0,1.001953125,-0.0234375,0.015625,-0.0078125,0.0,0.0,0.0
59048258,47026,0,1.0078125,-0.029296875,0.015625,-0.013671875,0.0,0.0,0.0
59049508,47027,0,1.0078125,-0.021484375,0.015625,-0.005859375,0.0,0.0,0.0
59050759,47028,0,1.013671875,-0.01953125,0.013671875,-0.005859375,0.0,0.0,0.0
59052009,47029,0,1.00390625,-0.017578125,0.015625,-0.001953125,0.0,0.0,0.0
59053259,47030,0,1.009765625,-0.017578125,0.021484375,0.00390625,0.0,0.0,0.0
59054510,47031,0,1.00390625,-0.01953125,0.01953125,0.0,0.0,0.0,0.0
59055762,47032,0,1.005859375,-0.01953125,0.01171875,-0.0078125,0.0,0.0,0.0
59057012,47033,0,1.00390625,-0.021484375,0.017578125,-0.00390625,0.0,0.0,0.0
59058271,47034,0,1.0,-0.03125,0.01171875,-0.01953125,0.0,0.0,0.0
59059521,47035,0,1.009765625,-0.033203125,0.00390625,-0.029296875,0.0,0.0,0.0
59060773,47036,0,1.005859375,-0.03515625,0.015625,-0.01953125,0.0,0.0,0.0
59062023,47037,0,1.0,-0.02734375,0.013671875,-0.013671875,0.0,0.0,0.0
59063274,47038,0,1.001953125,-0.03125,0.015625,-0.015625,0.0,0.0,0.0
59064525,47039,0,1.0078125,-0.025390625,0.017578125,-0.0078125,0.0,0.0,0.0
59065776,47040,0,1.005859375,-0.0234375,0.013671875,-0.009765625,0.0,0.0,0.0
59067026,47041,0,1.005859375,-0.01953125,0.01953125,0.0,0.0,0.0,0.0
59068276,47042,0,1.0078125,-0.0234375,0.015625,-0.0078125,0.0,0.0,0.0
59069527,47043,0,1.00390625,-0.021484375,0.01953125,-0.001953125,0.0,0.0,0.0
59070778,47044,0,1.00390625,-0.01953125,0.015625,-0.00390625,0.0,0.0,0.0
59072029,47045,0,1.005859375,-0.02734375,0.013671875,-0.013671875,0.0,0.0,0.0
59073280,47046,0,1.01171875,-0.0234375,0.017578125,-0.005859375,0.0,0.0,0.0
59074531,47047,0,1.001953125,-0.0234375,0.013671875,-0.009765625,0.0,0.0,0.0
